{
  "resourceType": "Bundle",
  "id": "GOFSH-GENERATED-ID-185",
  "type": "collection",
  "entry": [
    {
      "resource": {
        "resourceType": "MedicinalProductDefinition",
        "id": "SandimmunNeoral100mgmlorallos-SE-PLC-MedicinalProductDef",
        "meta": {
          "profile": [
            "http://unicom-project.eu/fhir/StructureDefinition/PPLMedicinalProductDefinition"
          ]
        },
        "identifier": [
          {
            "system": "http://ema.europa.eu/fhir/mpId",
            "value": "SE-100003469-00012311"
          },
          {
            "system": "http://ema.europa.eu/fhir/eurdId",
            "value": "745"
          }
        ],
        "name": [
          {
            "usage": [
              {
                "country": {
                  "coding": [
                    {
                      "system": "https://spor.ema.europa.eu/v1/lists/100000000002",
                      "display": "Sweden"
                    }
                  ]
                },
                "language": {
                  "coding": [
                    {
                      "code": "sv",
                      "system": "urn:ietf:bcp:47",
                      "display": "Swedish"
                    }
                  ]
                }
              }
            ],
            "productName": "Sandimmun Neoral 100 mg/ml oral lösning"
          }
        ],
        "combinedPharmaceuticalDoseForm": {
          "coding": [
            {
              "code": "100000073646",
              "system": "https://spor.ema.europa.eu/v1/lists/200000000004~200000000006~200000000007~200000000008",
              "display": "Oral solution"
            }
          ]
        },
        "domain": {
          "coding": [
            {
              "code": "100000000012",
              "system": "https://spor.ema.europa.eu/v1/lists/100000000004",
              "display": "Human use"
            }
          ]
        },
        "status": {
          "coding": [
            {
              "code": "200000005004",
              "system": "https://spor.ema.europa.eu/v1/lists/200000005003",
              "display": "Current"
            }
          ]
        },
        "indication": "Transplantationsindikationer  Organtransplantation  För prevention av transplantatavstötning efter organtransplantation.  Behandling av cellmedierad transplantatavstötning hos patienter som tidigare fått annan immunsuppressiv behandling.   Benmärgstransplantation  För prevention av transplantatavstötning efter allogen benmärgs- och stamcellstransplantation.   Profylax eller behandling av graft-versus-host disease (GVHD).   Andra indikationer än vid transplantation  Endogen uveit  Behandling av synhotande, intermediär eller posterior uveit av icke-infektiöst ursprung hos patienter där konventionell behandling sviktat eller orsakat oacceptabla biverkningar.   Behandling av Behçets uveit med upprepade inflammationer som drabbar retina hos patienter utan neurologiska manifestationer.   Nefrotiskt syndrom  Steroidberoende och steroidresistent nefrotiskt syndrom orsakat av primär glomerulär sjukdom som ”minimal change”-nefropati, fokal och segmentell glomeruloskleros, eller membranös glomerulonefrit.   Sandimmun Neoral kan användas för att inducera och upprätthålla remission. Det kan också användas för att upprätthålla steroidinducerad remission och möjliggöra utsättning av steroidbehandling.   Reumatoid artrit  Behandling av svår, aktiv reumatoid artrit.   Psoriasis  Behandling av svår psoriasis hos patienter där konventionell behandling är olämplig eller ineffektiv.   Atopisk dermatit  Sandimmun Neoral är indicerat för patienter med svår atopisk dermatit när systemisk behandling krävs.",
        "legalStatusOfSupply": {
          "coding": [
            {
              "code": "100000072084",
              "system": "https://spor.ema.europa.eu/v1/lists/100000072051",
              "display": "Medicinal product subject to medical prescription"
            }
          ]
        },
        "classification": [
          {
            "coding": [
              {
                "code": "100000096879",
                "system": "https://spor.ema.europa.eu/v1/lists/100000093533",
                "display": "L04AD01"
              }
            ]
          }
        ]
      }
    },
    {
      "resource": {
        "resourceType": "RegulatedAuthorization",
        "id": "SandimmunNeoral100mgmlorallos-SE-PLC-RegAutho",
        "meta": {
          "profile": [
            "http://unicom-project.eu/fhir/StructureDefinition/PPLRegulatedAuthorization"
          ]
        },
        "type": {
          "coding": [
            {
              "system": "https://spor.ema.europa.eu/v1/lists/220000000060",
              "code": "220000000061",
              "display": "Marketing Authorisation"
            }
          ]
        },
        "identifier": [
          {
            "system": "http://ema.europa.eu/fhir/marketingAuthorizationNumber",
            "value": "12311"
          }
        ],
        "subject": [
          {
            "reference": "MedicinalProductDefinition/SandimmunNeoral100mgmlorallos-SE-PLC-MedicinalProductDef"
          }
        ],
        "region": [
          {
            "coding": [
              {
                "code": "100000000535",
                "system": "https://spor.ema.europa.eu/v1/lists/100000000002",
                "display": "Sweden"
              }
            ]
          }
        ],
        "status": {
          "coding": [
            {
              "code": "100000072099",
              "system": "https://spor.ema.europa.eu/v1/lists/100000072049",
              "display": "Valid"
            }
          ]
        },
        "statusDate": "1994-09-09",
        "case": {
          "type": {
            "coding": [
              {
                "code": "dateOfFirstAuthorisation",
                "system": "https://ema.europa.eu/fhir/authorisationDateType",
                "display": "First Authorisation"
              }
            ]
          },
          "dateDateTime": "1994-09-09"
        },
        "holder": {
          "reference": "Organization/LOC-100020269"
        }
      }
    },
    {
      "resource": {
        "resourceType": "AdministrableProductDefinition",
        "id": "SandimmunNeoral100mgmlorallos-SE-PLC-AdminProductDef",
        "meta": {
          "profile": [
            "http://unicom-project.eu/fhir/StructureDefinition/PPLAdministrableProductDefinition"
          ]
        },
        "status": "active",
        "formOf": [
          {
            "reference": "MedicinalProductDefinition/SandimmunNeoral100mgmlorallos-SE-PLC-MedicinalProductDef"
          }
        ],
        "administrableDoseForm": {
          "coding": [
            {
              "code": "100000073646",
              "system": "https://spor.ema.europa.eu/v1/lists/200000000004",
              "display": "Oral solution"
            }
          ]
        },
        "producedFrom": [
          {
            "reference": "ManufacturedItemDefinition/SandimmunNeoral100mgmlorallos-SE-PLC-ManufacturedItemDef"
          }
        ],
        "routeOfAdministration": [
          {
            "code": {
              "coding": [
                {
                  "code": "100000073619",
                  "system": "https://spor.ema.europa.eu/v1/lists/100000073345",
                  "display": "Oral use"
                }
              ]
            }
          }
        ]
      }
    },
    {
      "resource": {
        "resourceType": "PackagedProductDefinition",
        "id": "SandimmunNeoral100mgmlorallos-SE-PLC-PackageProductDef",
        "meta": {
          "profile": [
            "http://unicom-project.eu/fhir/StructureDefinition/PPLPackagedProductDefinition"
          ]
        },
        "identifier": [
          {
            "system": "http://ema.europa.eu/example/pcid"
          }
        ],
        "packaging": {
          "type": {
            "coding": [
              {
                "system": "https://spor.ema.europa.eu/v1/lists/100000073346",
                "code": "100000073498",
                "display": "Box"
              }
            ]
          },
          "quantity": 1
        },
        "containedItemQuantity": [
          {
            "value": 1,
            "code": "200000002111",
            "system": "http://spor.ema.europa.eu/v1/lists/200000000014",
            "unit": "Bottle"
          }
        ],
        "packageFor": [
          {
            "reference": "MedicinalProductDefinition/SandimmunNeoral100mgmlorallos-SE-PLC-MedicinalProductDef"
          }
        ],
        "description": "Flaska, 1 x 50 ml",
        "marketingStatus": [
          {
            "country": {
              "coding": [
                {
                  "code": "100000000535",
                  "system": "https://spor.ema.europa.eu/v1/lists/100000000002",
                  "display": "Sweden"
                }
              ]
            },
            "status": {
              "coding": [
                {
                  "code": "100000072083",
                  "system": "https://spor.ema.europa.eu/v1/lists/100000072052",
                  "display": "Marketed"
                }
              ]
            }
          }
        ]
      }
    },
    {
      "resource": {
        "resourceType": "ManufacturedItemDefinition",
        "id": "SandimmunNeoral100mgmlorallos-SE-PLC-ManufacturedItemDef",
        "meta": {
          "profile": [
            "http://unicom-project.eu/fhir/StructureDefinition/PPLManufacturedItemDefinition"
          ]
        },
        "status": "active",
        "manufacturedDoseForm": {
          "coding": [
            {
              "code": "100000073646",
              "system": "https://spor.ema.europa.eu/v1/lists/200000000004",
              "display": "Oral solution"
            }
          ]
        },
        "unitOfPresentation": {
          "coding": [
            {
              "code": "200000002111",
              "system": "https://spor.ema.europa.eu/v1/lists/200000000014",
              "display": "Bottle"
            }
          ]
        }
      }
    },
    {
      "resource": {
        "resourceType": "Ingredient",
        "id": "SandimmunNeoral100mgmlorallos-SE-PLC-Ingredient01",
        "meta": {
          "profile": [
            "http://unicom-project.eu/fhir/StructureDefinition/PPLIngredient"
          ]
        },
        "status": "active",
        "for": [
          {
            "reference": "MedicinalProductDefinition/SandimmunNeoral100mgmlorallos-SE-PLC-MedicinalProductDef"
          },
          {
            "reference": "ManufacturedItemDefinition/SandimmunNeoral100mgmlorallos-SE-PLC-ManufacturedItemDef"
          },
          {
            "reference": "AdministrableProductDefinition/SandimmunNeoral100mgmlorallos-SE-PLC-AdminProductDef"
          }
        ],
        "role": {
          "coding": [
            {
              "code": "100000072072",
              "system": "https://spor.ema.europa.eu/v1/lists/100000072050",
              "display": "Active"
            }
          ]
        },
        "substance": {
          "code": {
            "concept": {
              "coding": [
                {
                  "code": "100000092121",
                  "system": "https://spor.azure-api.net/sms/api/v2/SubstanceDefinition",
                  "display": "Ciclosporin"
                }
              ]
            }
          },
          "strength": [
            {
              "concentrationRatio": {
                "numerator": {
                  "value": 100,
                  "code": "100000110655",
                  "system": "https://spor.ema.europa.eu/v1/lists/100000110633",
                  "unit": "milligram(s)"
                },
                "denominator": {
                  "value": 1,
                  "code": "100000110662",
                  "system": "https://spor.ema.europa.eu/v1/lists/100000110633",
                  "unit": "millilitre(s)"
                }
              },
              "referenceStrength": [
                {
                  "substance": {
                    "concept": {
                      "coding": [
                        {
                          "code": "100000092121",
                          "system": "https://spor.azure-api.net/sms/api/v2/SubstanceDefinition",
                          "display": "Ciclosporin"
                        }
                      ]
                    }
                  },
                  "strengthRatio": {
                    "numerator": {
                      "value": 100,
                      "code": "100000110655",
                      "system": "https://spor.ema.europa.eu/v1/lists/100000110633",
                      "unit": "milligram(s)"
                    },
                    "denominator": {
                      "value": 1,
                      "code": "100000110662",
                      "system": "https://spor.ema.europa.eu/v1/lists/100000110633",
                      "unit": "millilitre(s)"
                    }
                  }
                }
              ]
            }
          ]
        }
      }
    },
    {
      "resource": {
        "resourceType": "Ingredient",
        "id": "SandimmunNeoral100mgmlorallos-SE-PLC-Ingredient02",
        "meta": {
          "profile": [
            "http://unicom-project.eu/fhir/StructureDefinition/PPLIngredient"
          ]
        },
        "status": "active",
        "for": [
          {
            "reference": "MedicinalProductDefinition/SandimmunNeoral100mgmlorallos-SE-PLC-MedicinalProductDef"
          },
          {
            "reference": "ManufacturedItemDefinition/SandimmunNeoral100mgmlorallos-SE-PLC-ManufacturedItemDef"
          },
          {
            "reference": "AdministrableProductDefinition/SandimmunNeoral100mgmlorallos-SE-PLC-AdminProductDef"
          }
        ],
        "role": {
          "coding": [
            {
              "code": "100000072082",
              "system": "https://spor.ema.europa.eu/v1/lists/100000072050",
              "display": "Excipient"
            }
          ]
        },
        "substance": {
          "code": {
            "concept": {
              "coding": [
                {
                  "code": "100000129366",
                  "system": "https://spor.azure-api.net/sms/api/v2/SubstanceDefinition",
                  "display": "All-rac-alpha-Tocopherol"
                }
              ]
            }
          },
          "strength": [
            {
              "concentrationRatio": {
                "numerator": {
                  "value": 5,
                  "code": "100000110655",
                  "system": "https://spor.ema.europa.eu/v1/lists/100000110633",
                  "unit": "milligram(s)"
                },
                "denominator": {
                  "value": 1,
                  "code": "100000110662",
                  "system": "https://spor.ema.europa.eu/v1/lists/100000110633",
                  "unit": "millilitre(s)"
                }
              },
              "referenceStrength": [
                {
                  "substance": {
                    "concept": {
                      "coding": [
                        {
                          "code": "100000129366",
                          "system": "https://spor.azure-api.net/sms/api/v2/SubstanceDefinition",
                          "display": "All-rac-alpha-Tocopherol"
                        }
                      ]
                    }
                  },
                  "strengthRatio": {
                    "numerator": {
                      "value": 5,
                      "code": "100000110655",
                      "system": "https://spor.ema.europa.eu/v1/lists/100000110633",
                      "unit": "milligram(s)"
                    },
                    "denominator": {
                      "value": 1,
                      "code": "100000110662",
                      "system": "https://spor.ema.europa.eu/v1/lists/100000110633",
                      "unit": "millilitre(s)"
                    }
                  }
                }
              ]
            }
          ]
        }
      }
    },
    {
      "resource": {
        "resourceType": "Ingredient",
        "id": "SandimmunNeoral100mgmlorallos-SE-PLC-Ingredient03",
        "meta": {
          "profile": [
            "http://unicom-project.eu/fhir/StructureDefinition/PPLIngredient"
          ]
        },
        "status": "active",
        "for": [
          {
            "reference": "MedicinalProductDefinition/SandimmunNeoral100mgmlorallos-SE-PLC-MedicinalProductDef"
          },
          {
            "reference": "ManufacturedItemDefinition/SandimmunNeoral100mgmlorallos-SE-PLC-ManufacturedItemDef"
          },
          {
            "reference": "AdministrableProductDefinition/SandimmunNeoral100mgmlorallos-SE-PLC-AdminProductDef"
          }
        ],
        "role": {
          "coding": [
            {
              "code": "100000072082",
              "system": "https://spor.ema.europa.eu/v1/lists/100000072050",
              "display": "Excipient"
            }
          ]
        },
        "substance": {
          "code": {
            "concept": {
              "coding": [
                {
                  "code": "100000079902",
                  "system": "https://spor.azure-api.net/sms/api/v2/SubstanceDefinition",
                  "display": "Macrogolglycerol hydroxystearate"
                }
              ]
            }
          },
          "strength": [
            {
              "concentrationRatio": {
                "numerator": {
                  "value": 5,
                  "code": "100000110655",
                  "system": "https://spor.ema.europa.eu/v1/lists/100000110633",
                  "unit": "milligram(s)"
                },
                "denominator": {
                  "value": 1,
                  "code": "100000110662",
                  "system": "https://spor.ema.europa.eu/v1/lists/100000110633",
                  "unit": "millilitre(s)"
                }
              },
              "referenceStrength": [
                {
                  "substance": {
                    "concept": {
                      "coding": [
                        {
                          "code": "100000079902",
                          "system": "https://spor.azure-api.net/sms/api/v2/SubstanceDefinition",
                          "display": "Macrogolglycerol hydroxystearate"
                        }
                      ]
                    }
                  },
                  "strengthRatio": {
                    "numerator": {
                      "value": 5,
                      "code": "100000110655",
                      "system": "https://spor.ema.europa.eu/v1/lists/100000110633",
                      "unit": "milligram(s)"
                    },
                    "denominator": {
                      "value": 1,
                      "code": "100000110662",
                      "system": "https://spor.ema.europa.eu/v1/lists/100000110633",
                      "unit": "millilitre(s)"
                    }
                  }
                }
              ]
            }
          ]
        }
      }
    },
    {
      "resource": {
        "resourceType": "Ingredient",
        "id": "SandimmunNeoral100mgmlorallos-SE-PLC-Ingredient04",
        "meta": {
          "profile": [
            "http://unicom-project.eu/fhir/StructureDefinition/PPLIngredient"
          ]
        },
        "status": "active",
        "for": [
          {
            "reference": "MedicinalProductDefinition/SandimmunNeoral100mgmlorallos-SE-PLC-MedicinalProductDef"
          },
          {
            "reference": "ManufacturedItemDefinition/SandimmunNeoral100mgmlorallos-SE-PLC-ManufacturedItemDef"
          },
          {
            "reference": "AdministrableProductDefinition/SandimmunNeoral100mgmlorallos-SE-PLC-AdminProductDef"
          }
        ],
        "role": {
          "coding": [
            {
              "code": "100000072082",
              "system": "https://spor.ema.europa.eu/v1/lists/100000072050",
              "display": "Excipient"
            }
          ]
        },
        "substance": {
          "code": {
            "concept": {
              "coding": [
                {
                  "code": "100000080140",
                  "system": "https://spor.azure-api.net/sms/api/v2/SubstanceDefinition",
                  "display": "Maize oil, refined"
                }
              ]
            }
          },
          "strength": [
            {
              "concentrationRatio": {
                "numerator": {
                  "value": 5,
                  "code": "100000110655",
                  "system": "https://spor.ema.europa.eu/v1/lists/100000110633",
                  "unit": "milligram(s)"
                },
                "denominator": {
                  "value": 1,
                  "code": "100000110662",
                  "system": "https://spor.ema.europa.eu/v1/lists/100000110633",
                  "unit": "millilitre(s)"
                }
              },
              "referenceStrength": [
                {
                  "substance": {
                    "concept": {
                      "coding": [
                        {
                          "code": "100000080140",
                          "system": "https://spor.azure-api.net/sms/api/v2/SubstanceDefinition",
                          "display": "Maize oil, refined"
                        }
                      ]
                    }
                  },
                  "strengthRatio": {
                    "numerator": {
                      "value": 5,
                      "code": "100000110655",
                      "system": "https://spor.ema.europa.eu/v1/lists/100000110633",
                      "unit": "milligram(s)"
                    },
                    "denominator": {
                      "value": 1,
                      "code": "100000110662",
                      "system": "https://spor.ema.europa.eu/v1/lists/100000110633",
                      "unit": "millilitre(s)"
                    }
                  }
                }
              ]
            }
          ]
        }
      }
    },
    {
      "resource": {
        "resourceType": "Ingredient",
        "id": "SandimmunNeoral100mgmlorallos-SE-PLC-Ingredient05",
        "meta": {
          "profile": [
            "http://unicom-project.eu/fhir/StructureDefinition/PPLIngredient"
          ]
        },
        "status": "active",
        "for": [
          {
            "reference": "MedicinalProductDefinition/SandimmunNeoral100mgmlorallos-SE-PLC-MedicinalProductDef"
          },
          {
            "reference": "ManufacturedItemDefinition/SandimmunNeoral100mgmlorallos-SE-PLC-ManufacturedItemDef"
          },
          {
            "reference": "AdministrableProductDefinition/SandimmunNeoral100mgmlorallos-SE-PLC-AdminProductDef"
          }
        ],
        "role": {
          "coding": [
            {
              "code": "100000072082",
              "system": "https://spor.ema.europa.eu/v1/lists/100000072050",
              "display": "Excipient"
            }
          ]
        },
        "substance": {
          "code": {
            "concept": {
              "coding": [
                {
                  "code": "100000078520",
                  "system": "https://spor.azure-api.net/sms/api/v2/SubstanceDefinition",
                  "display": "Propylene glycol"
                }
              ]
            }
          },
          "strength": [
            {
              "concentrationRatio": {
                "numerator": {
                  "value": 5,
                  "code": "100000110655",
                  "system": "https://spor.ema.europa.eu/v1/lists/100000110633",
                  "unit": "milligram(s)"
                },
                "denominator": {
                  "value": 1,
                  "code": "100000110662",
                  "system": "https://spor.ema.europa.eu/v1/lists/100000110633",
                  "unit": "millilitre(s)"
                }
              },
              "referenceStrength": [
                {
                  "substance": {
                    "concept": {
                      "coding": [
                        {
                          "code": "100000078520",
                          "system": "https://spor.azure-api.net/sms/api/v2/SubstanceDefinition",
                          "display": "Propylene glycol"
                        }
                      ]
                    }
                  },
                  "strengthRatio": {
                    "numerator": {
                      "value": 5,
                      "code": "100000110655",
                      "system": "https://spor.ema.europa.eu/v1/lists/100000110633",
                      "unit": "milligram(s)"
                    },
                    "denominator": {
                      "value": 1,
                      "code": "100000110662",
                      "system": "https://spor.ema.europa.eu/v1/lists/100000110633",
                      "unit": "millilitre(s)"
                    }
                  }
                }
              ]
            }
          ]
        }
      }
    }
  ]
}
