{
  "resourceType": "Bundle",
  "id": "GOFSH-GENERATED-ID-51",
  "type": "collection",
  "entry": [
    {
      "resource": {
        "resourceType": "MedicinalProductDefinition",
        "id": "DepoMedrolcumLido-4010-SE-AJ-MedicinalProductDefinition",
        "meta": {
          "profile": [
            "http://unicom-project.eu/fhir/StructureDefinition/PPLMedicinalProductDefinition"
          ]
        },
        "identifier": [
          {
            "system": "http://ema.europa.eu/fhir/mpId",
            "value": "SE-100001390-00009493"
          },
          {
            "system": "http://ema.europa.eu/fhir/eurdId",
            "value": "1879"
          }
        ],
        "name": [
          {
            "usage": [
              {
                "country": {
                  "coding": [
                    {
                      "system": "https://spor.ema.europa.eu/v1/lists/100000000002",
                      "display": "Sweden"
                    }
                  ]
                },
                "language": {
                  "coding": [
                    {
                      "code": "sv",
                      "system": "urn:ietf:bcp:47",
                      "display": "Swedish"
                    }
                  ]
                }
              }
            ],
            "productName": "Depo-Medrol cum lidocain 40 mg/ml+10 mg/ml Injektionsvätska, suspension"
          }
        ],
        "combinedPharmaceuticalDoseForm": {
          "coding": [
            {
              "code": "100000073864",
              "system": "https://spor.ema.europa.eu/v1/lists/200000000004",
              "display": "Suspension for injection"
            }
          ]
        },
        "domain": {
          "coding": [
            {
              "code": "100000000012",
              "system": "https://spor.ema.europa.eu/v1/lists/100000000004",
              "display": "Human use"
            }
          ]
        },
        "status": {
          "coding": [
            {
              "code": "200000005004",
              "system": "https://spor.ema.europa.eu/v1/lists/200000005003",
              "display": "Current"
            }
          ]
        },
        "indication": "Periartikulära inflammatoriska tillstånd, t.ex. epikondylit och tendinit.",
        "legalStatusOfSupply": {
          "coding": [
            {
              "code": "100000072084",
              "system": "https://spor.ema.europa.eu/v1/lists/100000072051",
              "display": "Medicinal product subject to medical prescription"
            }
          ]
        },
        "classification": [
          {
            "coding": [
              {
                "code": "100000096038",
                "system": "https://spor.ema.europa.eu/v1/lists/100000093533",
                "display": "H02AB04"
              }
            ]
          }
        ]
      }
    },
    {
      "resource": {
        "resourceType": "RegulatedAuthorization",
        "id": "DepoMedrolcumLido-4010-SE-AJ-RegulatedAuthorization",
        "meta": {
          "profile": [
            "http://unicom-project.eu/fhir/StructureDefinition/PPLRegulatedAuthorization"
          ]
        },
        "type": {
          "coding": [
            {
              "system": "https://spor.ema.europa.eu/v1/lists/220000000060",
              "code": "220000000061",
              "display": "Marketing Authorisation"
            }
          ]
        },
        "identifier": [
          {
            "system": "http://ema.europa.eu/fhir/marketingAuthorizationNumber",
            "value": "9493"
          }
        ],
        "subject": [
          {
            "reference": "MedicinalProductDefinition/DepoMedrolcumLido-4010-SE-AJ-MedicinalProductDefinition"
          }
        ],
        "region": [
          {
            "coding": [
              {
                "code": "100000000535",
                "system": "https://spor.ema.europa.eu/v1/lists/100000000002",
                "display": "Sweden"
              }
            ]
          }
        ],
        "status": {
          "coding": [
            {
              "code": "100000072099",
              "system": "https://spor.ema.europa.eu/v1/lists/100000072049",
              "display": "Valid"
            }
          ]
        },
        "statusDate": "1980-03-28",
        "case": {
          "type": {
            "coding": [
              {
                "code": "dateOfFirstAuthorisation",
                "system": "https://ema.europa.eu/fhir/authorisationDateType",
                "display": "First Authorisation"
              }
            ]
          },
          "dateDateTime": "1980-03-28"
        },
        "holder": {
          "reference": "Organization/LOC-100057908"
        }
      }
    },
    {
      "resource": {
        "resourceType": "AdministrableProductDefinition",
        "id": "DepoMedrolcumLido-4010-SE-AJ-AdministrableProductDefinition",
        "meta": {
          "profile": [
            "http://unicom-project.eu/fhir/StructureDefinition/PPLAdministrableProductDefinition"
          ]
        },
        "status": "active",
        "formOf": [
          {
            "reference": "MedicinalProductDefinition/DepoMedrolcumLido-4010-SE-AJ-MedicinalProductDefinition"
          }
        ],
        "administrableDoseForm": {
          "coding": [
            {
              "code": "100000073864",
              "system": "https://spor.ema.europa.eu/v1/lists/200000000004",
              "display": "Suspension for injection"
            }
          ]
        },
        "producedFrom": [
          {
            "reference": "ManufacturedItemDefinition/DepoMedrolcumLido-4010-SE-AJ-ManufacturedItemDefinition"
          }
        ],
        "routeOfAdministration": [
          {
            "code": {
              "coding": [
                {
                  "code": "100000073623",
                  "system": "https://spor.ema.europa.eu/v1/lists/100000073345",
                  "display": "Periarticular use"
                }
              ]
            }
          }
        ]
      }
    },
    {
      "resource": {
        "resourceType": "PackagedProductDefinition",
        "id": "DepoMedrolcumLido-4010-SE-AJ-PackagedProductDefinition01",
        "meta": {
          "profile": [
            "http://unicom-project.eu/fhir/StructureDefinition/PPLPackagedProductDefinition"
          ]
        },
        "identifier": [
          {
            "system": "http://ema.europa.eu/example/pcid"
          }
        ],
        "packaging": {
          "type": {
            "coding": [
              {
                "system": "https://spor.ema.europa.eu/v1/lists/100000073346",
                "code": "100000073498",
                "display": "Box"
              }
            ]
          },
          "quantity": 1
        },
        "containedItemQuantity": [
          {
            "value": 10,
            "code": "200000002158",
            "system": "http://spor.ema.europa.eu/v1/lists/200000000014",
            "unit": "vial"
          }
        ],
        "packageFor": [
          {
            "reference": "MedicinalProductDefinition/DepoMedrolcumLido-4010-SE-AJ-MedicinalProductDefinition"
          }
        ],
        "description": "Injektionsflaska, 10 x 1 ml",
        "marketingStatus": [
          {
            "country": {
              "coding": [
                {
                  "code": "100000000535",
                  "system": "https://spor.ema.europa.eu/v1/lists/100000000002",
                  "display": "Sweden"
                }
              ]
            },
            "status": {
              "coding": [
                {
                  "code": "100000072083",
                  "system": "https://spor.ema.europa.eu/v1/lists/100000072052",
                  "display": "Marketed"
                }
              ]
            }
          }
        ]
      }
    },
    {
      "resource": {
        "resourceType": "PackagedProductDefinition",
        "id": "DepoMedrolcumLido-4010-SE-AJ-PackagedProductDefinition02",
        "meta": {
          "profile": [
            "http://unicom-project.eu/fhir/StructureDefinition/PPLPackagedProductDefinition"
          ]
        },
        "identifier": [
          {
            "system": "http://ema.europa.eu/example/pcid"
          }
        ],
        "packaging": {
          "type": {
            "coding": [
              {
                "system": "https://spor.ema.europa.eu/v1/lists/100000073346",
                "code": "100000073498",
                "display": "Box"
              }
            ]
          },
          "quantity": 1
        },
        "containedItemQuantity": [
          {
            "value": 25,
            "code": "200000002158",
            "system": "http://spor.ema.europa.eu/v1/lists/200000000014",
            "unit": "vial"
          }
        ],
        "packageFor": [
          {
            "reference": "MedicinalProductDefinition/DepoMedrolcumLido-4010-SE-AJ-MedicinalProductDefinition"
          }
        ],
        "description": "Injektionsflaska, 25 x 1 ml",
        "marketingStatus": [
          {
            "country": {
              "coding": [
                {
                  "code": "100000000535",
                  "system": "https://spor.ema.europa.eu/v1/lists/100000000002",
                  "display": "Sweden"
                }
              ]
            },
            "status": {
              "coding": [
                {
                  "code": "100000072083",
                  "system": "https://spor.ema.europa.eu/v1/lists/100000072052",
                  "display": "Marketed"
                }
              ]
            }
          }
        ]
      }
    },
    {
      "resource": {
        "resourceType": "ManufacturedItemDefinition",
        "id": "DepoMedrolcumLido-4010-SE-AJ-ManufacturedItemDefinition",
        "meta": {
          "profile": [
            "http://unicom-project.eu/fhir/StructureDefinition/PPLManufacturedItemDefinition"
          ]
        },
        "status": "active",
        "manufacturedDoseForm": {
          "coding": [
            {
              "code": "100000073864",
              "system": "https://spor.ema.europa.eu/v1/lists/200000000004",
              "display": "Suspension for injection"
            }
          ]
        },
        "unitOfPresentation": {
          "coding": [
            {
              "code": "200000002158",
              "system": "https://spor.ema.europa.eu/v1/lists/200000000014",
              "display": "Vial"
            }
          ]
        }
      }
    },
    {
      "resource": {
        "resourceType": "Ingredient",
        "id": "DepoMedrolcumLido-4010-SE-AJ-Ingredient01",
        "meta": {
          "profile": [
            "http://unicom-project.eu/fhir/StructureDefinition/PPLIngredient"
          ]
        },
        "status": "active",
        "for": [
          {
            "reference": "MedicinalProductDefinition/DepoMedrolcumLido-4010-SE-AJ-MedicinalProductDefinition"
          },
          {
            "reference": "ManufacturedItemDefinition/DepoMedrolcumLido-4010-SE-AJ-ManufacturedItemDefinition"
          },
          {
            "reference": "AdministrableProductDefinition/DepoMedrolcumLido-4010-SE-AJ-AdministrableProductDefinition"
          }
        ],
        "role": {
          "coding": [
            {
              "code": "100000072072",
              "system": "https://spor.ema.europa.eu/v1/lists/100000072050",
              "display": "Active"
            }
          ]
        },
        "substance": {
          "code": {
            "concept": {
              "coding": [
                {
                  "code": "100000139489",
                  "system": "https://spor.azure-api.net/sms/api/v2/SubstanceDefinition",
                  "display": "lidocaine hydrochloride"
                }
              ]
            }
          },
          "strength": [
            {
              "concentrationRatio": {
                "numerator": {
                  "value": 10,
                  "code": "100000110655",
                  "system": "http://spor.ema.europa.eu/v1/lists/100000110633",
                  "unit": "milligram(s)"
                },
                "denominator": {
                  "value": 1,
                  "code": "100000110662",
                  "system": "http://spor.ema.europa.eu/v1/lists/100000110633",
                  "unit": "millilitre(s)"
                }
              },
              "referenceStrength": [
                {
                  "substance": {
                    "concept": {
                      "coding": [
                        {
                          "code": "100000091713",
                          "system": "https://spor.azure-api.net/sms/api/v2/SubstanceDefinition",
                          "display": "lidocaine"
                        }
                      ]
                    }
                  },
                  "strengthRatio": {
                    "numerator": {
                      "value": 8.65,
                      "code": "100000110655",
                      "system": "https://spor.ema.europa.eu/v1/lists/100000110633",
                      "unit": "milligram(s)"
                    },
                    "denominator": {
                      "value": 1,
                      "code": "100000110662",
                      "system": "https://spor.ema.europa.eu/v1/lists/100000110633",
                      "unit": "millilitre(s)"
                    }
                  }
                }
              ]
            }
          ]
        }
      }
    },
    {
      "resource": {
        "resourceType": "Ingredient",
        "id": "DepoMedrolcumLido-4010-SE-AJ-Ingredient02",
        "meta": {
          "profile": [
            "http://unicom-project.eu/fhir/StructureDefinition/PPLIngredient"
          ]
        },
        "status": "active",
        "for": [
          {
            "reference": "MedicinalProductDefinition/DepoMedrolcumLido-4010-SE-AJ-MedicinalProductDefinition"
          },
          {
            "reference": "ManufacturedItemDefinition/DepoMedrolcumLido-4010-SE-AJ-ManufacturedItemDefinition"
          },
          {
            "reference": "AdministrableProductDefinition/DepoMedrolcumLido-4010-SE-AJ-AdministrableProductDefinition"
          }
        ],
        "role": {
          "coding": [
            {
              "code": "100000072072",
              "system": "https://spor.ema.europa.eu/v1/lists/100000072050",
              "display": "Active"
            }
          ]
        },
        "substance": {
          "code": {
            "concept": {
              "coding": [
                {
                  "code": "100000091568",
                  "system": "https://spor.azure-api.net/sms/api/v2/SubstanceDefinition",
                  "display": "Methylprednisolone acetate"
                }
              ]
            }
          },
          "strength": [
            {
              "concentrationRatio": {
                "numerator": {
                  "value": 40,
                  "code": "100000110655",
                  "system": "http://spor.ema.europa.eu/v1/lists/100000110633",
                  "unit": "milligram(s)"
                },
                "denominator": {
                  "value": 1,
                  "code": "100000110662",
                  "system": "http://spor.ema.europa.eu/v1/lists/100000110633",
                  "unit": "millilitre(s)"
                }
              },
              "referenceStrength": [
                {
                  "substance": {
                    "concept": {
                      "coding": [
                        {
                          "code": "100000162747",
                          "system": "https://spor.azure-api.net/sms/api/v2/SubstanceDefinition",
                          "display": "methylprednisolone ph. eur."
                        }
                      ]
                    }
                  },
                  "strengthRatio": {
                    "numerator": {
                      "value": 35.96,
                      "code": "100000110655",
                      "system": "https://spor.ema.europa.eu/v1/lists/100000110633",
                      "unit": "milligram(s)"
                    },
                    "denominator": {
                      "value": 1,
                      "code": "100000110662",
                      "system": "https://spor.ema.europa.eu/v1/lists/100000110633",
                      "unit": "millilitre(s)"
                    }
                  }
                }
              ]
            }
          ]
        }
      }
    }
  ]
}
