{
  "resourceType": "Bundle",
  "id": "GOFSH-GENERATED-ID-228",
  "type": "collection",
  "entry": [
    {
      "resource": {
        "resourceType": "MedicinalProductDefinition",
        "id": "VentilastinNovolizer100mginhalationspulver-SE-PLC-MedProdDef",
        "meta": {
          "profile": [
            "http://unicom-project.eu/fhir/StructureDefinition/PPLMedicinalProductDefinition"
          ]
        },
        "identifier": [
          {
            "system": "http://ema.europa.eu/fhir/mpId",
            "value": "SE-100001594-00012324"
          },
          {
            "system": "http://ema.europa.eu/fhir/eurdId",
            "value": "10330"
          }
        ],
        "name": [
          {
            "usage": [
              {
                "country": {
                  "coding": [
                    {
                      "system": "https://spor.ema.europa.eu/v1/lists/100000000002",
                      "display": "Sweden"
                    }
                  ]
                },
                "language": {
                  "coding": [
                    {
                      "code": "sv",
                      "system": "urn:ietf:bcp:47",
                      "display": "Swedish"
                    }
                  ]
                }
              }
            ],
            "productName": "Ventilastin Novolizer 100 mikrogram/dos inhalationspulver"
          }
        ],
        "combinedPharmaceuticalDoseForm": {
          "coding": [
            {
              "code": "100000073839",
              "system": "https://spor.ema.europa.eu/v1/lists/200000000004~200000000006~200000000007~200000000008",
              "display": "Inhalation powder"
            }
          ]
        },
        "domain": {
          "coding": [
            {
              "code": "100000000012",
              "system": "https://spor.ema.europa.eu/v1/lists/100000000004",
              "display": "Human use"
            }
          ]
        },
        "status": {
          "coding": [
            {
              "code": "200000005004",
              "system": "https://spor.ema.europa.eu/v1/lists/200000005003",
              "display": "Current"
            }
          ]
        },
        "indication": "Ventilastin Novolizer 100 mikrogram/dos, inhalationspulver är godkänt för vuxna, ungdomar och barn mellan 6 och 12 år. Symtomatisk behandling av tillstånd med åtföljande reversibel luftvägsobstruktion, t.ex. astma eller kroniskt obstruktiv lungsjukdom (KOL) med en betydande reversibilitetskomponent. Förebyggande av astmaanfall som utlöses av ansträngning eller exponering för allergen.",
        "legalStatusOfSupply": {
          "coding": [
            {
              "code": "100000072084",
              "system": "https://spor.ema.europa.eu/v1/lists/100000072051",
              "display": "Medicinal product subject to medical prescription"
            }
          ]
        },
        "classification": [
          {
            "coding": [
              {
                "code": "100000098065",
                "system": "https://spor.ema.europa.eu/v1/lists/100000093533",
                "display": "R03AC02"
              }
            ]
          }
        ]
      }
    },
    {
      "resource": {
        "resourceType": "RegulatedAuthorization",
        "id": "VentilastinNovolizer100mginhalationspulver-SE-PLC-RegAutho",
        "meta": {
          "profile": [
            "http://unicom-project.eu/fhir/StructureDefinition/PPLRegulatedAuthorization"
          ]
        },
        "type": {
          "coding": [
            {
              "system": "https://spor.ema.europa.eu/v1/lists/220000000060",
              "code": "220000000061",
              "display": "Marketing Authorisation"
            }
          ]
        },
        "identifier": [
          {
            "system": "http://ema.europa.eu/fhir/marketingAuthorizationNumber",
            "value": "24458"
          }
        ],
        "subject": [
          {
            "reference": "MedicinalProductDefinition/VentilastinNovolizer100mginhalationspulver-SE-PLC-MedProdDef"
          }
        ],
        "region": [
          {
            "coding": [
              {
                "code": "100000000535",
                "system": "https://spor.ema.europa.eu/v1/lists/100000000002",
                "display": "Sweden"
              }
            ]
          }
        ],
        "status": {
          "coding": [
            {
              "code": "100000072099",
              "system": "https://spor.ema.europa.eu/v1/lists/100000072049",
              "display": "Valid"
            }
          ]
        },
        "statusDate": "2008-02-15",
        "case": {
          "type": {
            "coding": [
              {
                "code": "dateOfFirstAuthorisation",
                "system": "https://ema.europa.eu/fhir/authorisationDateType",
                "display": "First Authorisation"
              }
            ]
          },
          "dateDateTime": "2008-02-15"
        },
        "holder": {
          "reference": "Organization/LOC-100001591"
        }
      }
    },
    {
      "resource": {
        "resourceType": "AdministrableProductDefinition",
        "id": "VentilastinNovolizer100mginhalationspulver-SE-PLC-AdminiProdDef",
        "meta": {
          "profile": [
            "http://unicom-project.eu/fhir/StructureDefinition/PPLAdministrableProductDefinition"
          ]
        },
        "status": "active",
        "formOf": [
          {
            "reference": "MedicinalProductDefinition/VentilastinNovolizer100mginhalationspulver-SE-PLC-MedProdDef"
          }
        ],
        "administrableDoseForm": {
          "coding": [
            {
              "code": "100000073839",
              "system": "https://spor.ema.europa.eu/v1/lists/200000000004",
              "display": "Inhalation powder"
            }
          ]
        },
        "producedFrom": [
          {
            "reference": "ManufacturedItemDefinition/VentilastinNovolizer100mginhalationspulver-SE-PLC-ManuItemDef"
          }
        ],
        "routeOfAdministration": [
          {
            "code": {
              "coding": [
                {
                  "code": "100000073584",
                  "system": "https://spor.ema.europa.eu/v1/lists/100000073345",
                  "display": "Inhalation use"
                }
              ]
            }
          }
        ]
      }
    },
    {
      "resource": {
        "resourceType": "PackagedProductDefinition",
        "id": "VentilastinNovolizer100mginhalationspulver-SE-PLC-PackProdDef",
        "meta": {
          "profile": [
            "http://unicom-project.eu/fhir/StructureDefinition/PPLPackagedProductDefinition"
          ]
        },
        "identifier": [
          {
            "system": "http://ema.europa.eu/example/pcid"
          }
        ],
        "packaging": {
          "type": {
            "coding": [
              {
                "system": "https://spor.ema.europa.eu/v1/lists/100000073346",
                "code": "100000073498",
                "display": "Box"
              }
            ]
          },
          "quantity": 1
        },
        "containedItemQuantity": [
          {
            "value": 1,
            "code": "200000002114",
            "system": "http://spor.ema.europa.eu/v1/lists/200000000014",
            "unit": "Cartridge"
          }
        ],
        "packageFor": [
          {
            "reference": "MedicinalProductDefinition/VentilastinNovolizer100mginhalationspulver-SE-PLC-MedProdDef"
          }
        ],
        "description": "Kasett 1 x 200 doser (refill)",
        "marketingStatus": [
          {
            "country": {
              "coding": [
                {
                  "code": "100000000535",
                  "system": "https://spor.ema.europa.eu/v1/lists/100000000002",
                  "display": "Sweden"
                }
              ]
            },
            "status": {
              "coding": [
                {
                  "code": "100000072083",
                  "system": "https://spor.ema.europa.eu/v1/lists/100000072052",
                  "display": "Marketed"
                }
              ]
            }
          }
        ]
      }
    },
    {
      "resource": {
        "resourceType": "ManufacturedItemDefinition",
        "id": "VentilastinNovolizer100mginhalationspulver-SE-PLC-ManuItemDef",
        "meta": {
          "profile": [
            "http://unicom-project.eu/fhir/StructureDefinition/PPLManufacturedItemDefinition"
          ]
        },
        "status": "active",
        "manufacturedDoseForm": {
          "coding": [
            {
              "code": "100000073839",
              "system": "https://spor.ema.europa.eu/v1/lists/200000000004",
              "display": "Inhalation powder"
            }
          ]
        },
        "unitOfPresentation": {
          "coding": [
            {
              "code": "200000002114",
              "system": "https://spor.ema.europa.eu/v1/lists/200000000014",
              "display": "Cartridge"
            }
          ]
        }
      }
    },
    {
      "resource": {
        "resourceType": "Ingredient",
        "id": "VentilastinNovolizer100mginhalationspulver-SE-PLC-Ingredient",
        "meta": {
          "profile": [
            "http://unicom-project.eu/fhir/StructureDefinition/PPLIngredient"
          ]
        },
        "status": "active",
        "for": [
          {
            "reference": "MedicinalProductDefinition/VentilastinNovolizer100mginhalationspulver-SE-PLC-MedProdDef"
          },
          {
            "reference": "ManufacturedItemDefinition/VentilastinNovolizer100mginhalationspulver-SE-PLC-ManuItemDef"
          },
          {
            "reference": "AdministrableProductDefinition/VentilastinNovolizer100mginhalationspulver-SE-PLC-AdminiProdDef"
          }
        ],
        "role": {
          "coding": [
            {
              "code": "100000072072",
              "system": "https://spor.ema.europa.eu/v1/lists/100000072050",
              "display": "Active"
            }
          ]
        },
        "substance": {
          "code": {
            "concept": {
              "coding": [
                {
                  "code": "100000090564",
                  "system": "https://spor.azure-api.net/sms/api/v2/SubstanceDefinition",
                  "display": "Salbutamol sulfate"
                }
              ]
            }
          },
          "strength": [
            {
              "presentationRatio": {
                "numerator": {
                  "value": 120,
                  "code": "100000110656",
                  "system": "https://spor.ema.europa.eu/v1/lists/100000110633",
                  "unit": "microgram(s)"
                },
                "denominator": {
                  "value": 1,
                  "code": "200000002163",
                  "system": "https://spor.ema.europa.eu/v1/lists/200000000014",
                  "unit": "Actuation"
                }
              },
              "referenceStrength": [
                {
                  "substance": {
                    "concept": {
                      "coding": [
                        {
                          "code": "100000091629",
                          "system": "https://spor.azure-api.net/sms/api/v2/SubstanceDefinition",
                          "display": "salbutamol"
                        }
                      ]
                    }
                  },
                  "strengthRatio": {
                    "numerator": {
                      "value": 100,
                      "code": "100000110656",
                      "system": "https://spor.ema.europa.eu/v1/lists/100000110633",
                      "unit": "microgram(s)"
                    },
                    "denominator": {
                      "value": 1,
                      "code": "200000002163",
                      "system": "https://spor.ema.europa.eu/v1/lists/200000000014",
                      "unit": "Actuation"
                    }
                  }
                }
              ]
            }
          ]
        }
      }
    }
  ]
}
