{
  "resourceType": "Bundle",
  "id": "GOFSH-GENERATED-ID-94",
  "type": "collection",
  "entry": [
    {
      "resource": {
        "resourceType": "MedicinalProductDefinition",
        "id": "HydrokortisonOrifarm20mgTablett-SE-PLC-MedicinalProductDef",
        "meta": {
          "profile": [
            "http://unicom-project.eu/fhir/StructureDefinition/PPLMedicinalProductDefinition"
          ]
        },
        "identifier": [
          {
            "system": "http://ema.europa.eu/fhir/mpId",
            "value": "SE-100002342-00054330"
          },
          {
            "system": "http://ema.europa.eu/fhir/eurdId",
            "value": "10855"
          }
        ],
        "name": [
          {
            "usage": [
              {
                "country": {
                  "coding": [
                    {
                      "system": "https://spor.ema.europa.eu/v1/lists/100000000002",
                      "display": "Sweden"
                    }
                  ]
                },
                "language": {
                  "coding": [
                    {
                      "code": "sv",
                      "system": "urn:ietf:bcp:47",
                      "display": "Swedish"
                    }
                  ]
                }
              }
            ],
            "productName": "Hydrokortison Orifarm 20 mg Tablett"
          }
        ],
        "combinedPharmaceuticalDoseForm": {
          "coding": [
            {
              "code": "100000073664",
              "system": "https://spor.ema.europa.eu/v1/lists/200000000004~200000000006~200000000007~200000000008",
              "display": "Tablet"
            }
          ]
        },
        "domain": {
          "coding": [
            {
              "code": "100000000012",
              "system": "https://spor.ema.europa.eu/v1/lists/100000000004",
              "display": "Human use"
            }
          ]
        },
        "status": {
          "coding": [
            {
              "code": "200000005004",
              "system": "https://spor.ema.europa.eu/v1/lists/200000005003",
              "display": "Current"
            }
          ]
        },
        "indication": "Substitutionsbehandling vid kongenital binjurebarkshyperplasi hos barn.  Behandling av binjurebarkinsufficiens hos barn och ungdomar under 18 år.  Akut behandling av svår astma, överkänslighetsreaktioner mot läkemedel, serumsjuka, angioneurotiskt ödem och anafylaxi hos vuxna och barn.  Hydrokortison Orifarm är avsett för vuxna och barn i åldern 1 månad till 18 år där tablettberedning bedöms lämplig.",
        "legalStatusOfSupply": {
          "coding": [
            {
              "code": "100000072084",
              "system": "https://spor.ema.europa.eu/v1/lists/100000072051",
              "display": "Medicinal product subject to medical prescription"
            }
          ]
        },
        "classification": [
          {
            "coding": [
              {
                "code": "100000096043",
                "system": "https://spor.ema.europa.eu/v1/lists/100000093533",
                "display": "H02AB09"
              }
            ]
          }
        ]
      }
    },
    {
      "resource": {
        "resourceType": "RegulatedAuthorization",
        "id": "HydrokortisonOrifarm20mgTablett-SE-PLC-RegAutho",
        "meta": {
          "profile": [
            "http://unicom-project.eu/fhir/StructureDefinition/PPLRegulatedAuthorization"
          ]
        },
        "type": {
          "coding": [
            {
              "system": "https://spor.ema.europa.eu/v1/lists/220000000060",
              "code": "220000000061",
              "display": "Marketing Authorisation"
            }
          ]
        },
        "identifier": [
          {
            "system": "http://ema.europa.eu/fhir/marketingAuthorizationNumber",
            "value": "54330"
          }
        ],
        "subject": [
          {
            "reference": "MedicinalProductDefinition/HydrokortisonOrifarm20mgTablett-SE-PLC-MedicinalProductDef"
          }
        ],
        "region": [
          {
            "coding": [
              {
                "code": "100000000535",
                "system": "https://spor.ema.europa.eu/v1/lists/100000000002",
                "display": "Sweden"
              }
            ]
          }
        ],
        "status": {
          "coding": [
            {
              "code": "100000072099",
              "system": "https://spor.ema.europa.eu/v1/lists/100000072049",
              "display": "Valid"
            }
          ]
        },
        "statusDate": "2017-02-06",
        "case": {
          "type": {
            "coding": [
              {
                "code": "dateOfFirstAuthorisation",
                "system": "https://ema.europa.eu/fhir/authorisationDateType",
                "display": "First Authorisation"
              }
            ]
          },
          "dateDateTime": "2017-02-06"
        },
        "holder": {
          "reference": "Organization/LOC-100005206"
        }
      }
    },
    {
      "resource": {
        "resourceType": "AdministrableProductDefinition",
        "id": "HydrokortisonOrifarm20mgTablett-SE-PLC-AdminProductDef",
        "meta": {
          "profile": [
            "http://unicom-project.eu/fhir/StructureDefinition/PPLAdministrableProductDefinition"
          ]
        },
        "status": "active",
        "formOf": [
          {
            "reference": "MedicinalProductDefinition/HydrokortisonOrifarm20mgTablett-SE-PLC-MedicinalProductDef"
          }
        ],
        "administrableDoseForm": {
          "coding": [
            {
              "code": "100000073664",
              "system": "https://spor.ema.europa.eu/v1/lists/200000000004",
              "display": "Tablet"
            }
          ]
        },
        "producedFrom": [
          {
            "reference": "ManufacturedItemDefinition/HydrokortisonOrifarm20mgTablett-SE-PLC-ManufacturedItemDef"
          }
        ],
        "routeOfAdministration": [
          {
            "code": {
              "coding": [
                {
                  "code": "100000073619",
                  "system": "https://spor.ema.europa.eu/v1/lists/100000073345",
                  "display": "Oral use"
                }
              ]
            }
          }
        ]
      }
    },
    {
      "resource": {
        "resourceType": "PackagedProductDefinition",
        "id": "HydrokortisonOrifarm20mgTablett-SE-PLC-PackageProductDef",
        "meta": {
          "profile": [
            "http://unicom-project.eu/fhir/StructureDefinition/PPLPackagedProductDefinition"
          ]
        },
        "identifier": [
          {
            "system": "http://ema.europa.eu/example/pcid"
          }
        ],
        "packaging": {
          "type": {
            "coding": [
              {
                "system": "https://spor.ema.europa.eu/v1/lists/100000073346",
                "code": "100000073498",
                "display": "Box"
              }
            ]
          },
          "quantity": 1
        },
        "containedItemQuantity": [
          {
            "value": 100,
            "code": "200000002152",
            "system": "http://spor.ema.europa.eu/v1/lists/200000000014",
            "unit": "Tablet"
          }
        ],
        "packageFor": [
          {
            "reference": "MedicinalProductDefinition/HydrokortisonOrifarm20mgTablett-SE-PLC-MedicinalProductDef"
          }
        ],
        "description": "Burk, 100 tabletter",
        "marketingStatus": [
          {
            "country": {
              "coding": [
                {
                  "code": "100000000535",
                  "system": "https://spor.ema.europa.eu/v1/lists/100000000002",
                  "display": "Sweden"
                }
              ]
            },
            "status": {
              "coding": [
                {
                  "code": "100000072083",
                  "system": "https://spor.ema.europa.eu/v1/lists/100000072052",
                  "display": "Marketed"
                }
              ]
            }
          }
        ]
      }
    },
    {
      "resource": {
        "resourceType": "ManufacturedItemDefinition",
        "id": "HydrokortisonOrifarm20mgTablett-SE-PLC-ManufacturedItemDef",
        "meta": {
          "profile": [
            "http://unicom-project.eu/fhir/StructureDefinition/PPLManufacturedItemDefinition"
          ]
        },
        "status": "active",
        "manufacturedDoseForm": {
          "coding": [
            {
              "code": "100000073664",
              "system": "https://spor.ema.europa.eu/v1/lists/200000000004",
              "display": "Tablet"
            }
          ]
        },
        "unitOfPresentation": {
          "coding": [
            {
              "code": "200000002152",
              "system": "https://spor.ema.europa.eu/v1/lists/200000000014",
              "display": "Tablet"
            }
          ]
        }
      }
    },
    {
      "resource": {
        "resourceType": "Ingredient",
        "id": "HydrokortisonOrifarm20mgTablett-SE-PLC-Ingredient01",
        "meta": {
          "profile": [
            "http://unicom-project.eu/fhir/StructureDefinition/PPLIngredient"
          ]
        },
        "status": "active",
        "for": [
          {
            "reference": "MedicinalProductDefinition/HydrokortisonOrifarm20mgTablett-SE-PLC-MedicinalProductDef"
          },
          {
            "reference": "ManufacturedItemDefinition/HydrokortisonOrifarm20mgTablett-SE-PLC-ManufacturedItemDef"
          },
          {
            "reference": "AdministrableProductDefinition/HydrokortisonOrifarm20mgTablett-SE-PLC-AdminProductDef"
          }
        ],
        "role": {
          "coding": [
            {
              "code": "100000072072",
              "system": "https://spor.ema.europa.eu/v1/lists/100000072050",
              "display": "Active"
            }
          ]
        },
        "substance": {
          "code": {
            "concept": {
              "coding": [
                {
                  "code": "100000092635",
                  "system": "https://spor.azure-api.net/sms/api/v2/SubstanceDefinition",
                  "display": "Hydrocortisone"
                }
              ]
            }
          },
          "strength": [
            {
              "presentationRatio": {
                "numerator": {
                  "value": 20,
                  "code": "100000110655",
                  "system": "https://spor.ema.europa.eu/v1/lists/100000110633",
                  "unit": "milligram(s)"
                },
                "denominator": {
                  "value": 1,
                  "code": "200000002152",
                  "system": "https://spor.ema.europa.eu/v1/lists/200000000014",
                  "unit": "Tablet"
                }
              },
              "referenceStrength": [
                {
                  "substance": {
                    "concept": {
                      "coding": [
                        {
                          "code": "100000092635",
                          "system": "https://spor.azure-api.net/sms/api/v2/SubstanceDefinition",
                          "display": "Hydrocortisone"
                        }
                      ]
                    }
                  },
                  "strengthRatio": {
                    "numerator": {
                      "value": 20,
                      "code": "100000110655",
                      "system": "https://spor.ema.europa.eu/v1/lists/100000110633",
                      "unit": "milligram(s)"
                    },
                    "denominator": {
                      "value": 1,
                      "code": "200000002152",
                      "system": "https://spor.ema.europa.eu/v1/lists/200000000014",
                      "unit": "Tablet"
                    }
                  }
                }
              ]
            }
          ]
        }
      }
    },
    {
      "resource": {
        "resourceType": "Ingredient",
        "id": "HydrokortisonOrifarm20mgTablett-SE-PLC-Ingredient02",
        "meta": {
          "profile": [
            "http://unicom-project.eu/fhir/StructureDefinition/PPLIngredient"
          ]
        },
        "status": "active",
        "for": [
          {
            "reference": "MedicinalProductDefinition/HydrokortisonOrifarm20mgTablett-SE-PLC-MedicinalProductDef"
          },
          {
            "reference": "ManufacturedItemDefinition/HydrokortisonOrifarm20mgTablett-SE-PLC-ManufacturedItemDef"
          },
          {
            "reference": "AdministrableProductDefinition/HydrokortisonOrifarm20mgTablett-SE-PLC-AdminProductDef"
          }
        ],
        "role": {
          "coding": [
            {
              "code": "100000072082",
              "system": "https://spor.ema.europa.eu/v1/lists/100000072050",
              "display": "Excipient"
            }
          ]
        },
        "substance": {
          "code": {
            "concept": {
              "coding": [
                {
                  "code": "100000078553",
                  "system": "https://spor.azure-api.net/sms/api/v2/SubstanceDefinition",
                  "display": "Gelatin"
                }
              ]
            }
          },
          "strength": [
            {
              "concentrationRatio": {
                "numerator": {
                  "value": 0,
                  "code": "100000110655",
                  "system": "http://spor.ema.europa.eu/v1/lists/100000110633",
                  "unit": "milligram(s)"
                },
                "denominator": {
                  "value": 0,
                  "code": "100000110756",
                  "system": "http://spor.ema.europa.eu/v1/lists/100000110633",
                  "unit": "unit(s)"
                }
              }
            }
          ]
        }
      }
    },
    {
      "resource": {
        "resourceType": "Ingredient",
        "id": "HydrokortisonOrifarm20mgTablett-SE-PLC-Ingredient03",
        "meta": {
          "profile": [
            "http://unicom-project.eu/fhir/StructureDefinition/PPLIngredient"
          ]
        },
        "status": "active",
        "for": [
          {
            "reference": "MedicinalProductDefinition/HydrokortisonOrifarm20mgTablett-SE-PLC-MedicinalProductDef"
          },
          {
            "reference": "ManufacturedItemDefinition/HydrokortisonOrifarm20mgTablett-SE-PLC-ManufacturedItemDef"
          },
          {
            "reference": "AdministrableProductDefinition/HydrokortisonOrifarm20mgTablett-SE-PLC-AdminProductDef"
          }
        ],
        "role": {
          "coding": [
            {
              "code": "100000072082",
              "system": "https://spor.ema.europa.eu/v1/lists/100000072050",
              "display": "Excipient"
            }
          ]
        },
        "substance": {
          "code": {
            "concept": {
              "coding": [
                {
                  "code": "100000129311",
                  "system": "https://spor.azure-api.net/sms/api/v2/SubstanceDefinition",
                  "display": "Granulated lactose monohydrate"
                }
              ]
            }
          },
          "strength": [
            {
              "concentrationRatio": {
                "numerator": {
                  "value": 0,
                  "code": "100000110655",
                  "system": "http://spor.ema.europa.eu/v1/lists/100000110633",
                  "unit": "milligram(s)"
                },
                "denominator": {
                  "value": 0,
                  "code": "100000110756",
                  "system": "http://spor.ema.europa.eu/v1/lists/100000110633",
                  "unit": "unit(s)"
                }
              }
            }
          ]
        }
      }
    },
    {
      "resource": {
        "resourceType": "Ingredient",
        "id": "HydrokortisonOrifarm20mgTablett-SE-PLC-Ingredient04",
        "meta": {
          "profile": [
            "http://unicom-project.eu/fhir/StructureDefinition/PPLIngredient"
          ]
        },
        "status": "active",
        "for": [
          {
            "reference": "MedicinalProductDefinition/HydrokortisonOrifarm20mgTablett-SE-PLC-MedicinalProductDef"
          },
          {
            "reference": "ManufacturedItemDefinition/HydrokortisonOrifarm20mgTablett-SE-PLC-ManufacturedItemDef"
          },
          {
            "reference": "AdministrableProductDefinition/HydrokortisonOrifarm20mgTablett-SE-PLC-AdminProductDef"
          }
        ],
        "role": {
          "coding": [
            {
              "code": "100000072082",
              "system": "https://spor.ema.europa.eu/v1/lists/100000072050",
              "display": "Excipient"
            }
          ]
        },
        "substance": {
          "code": {
            "concept": {
              "coding": [
                {
                  "code": "100000088586",
                  "system": "https://spor.azure-api.net/sms/api/v2/SubstanceDefinition",
                  "display": "Magnesium stearate"
                }
              ]
            }
          },
          "strength": [
            {
              "concentrationRatio": {
                "numerator": {
                  "value": 0,
                  "code": "100000110655",
                  "system": "http://spor.ema.europa.eu/v1/lists/100000110633",
                  "unit": "milligram(s)"
                },
                "denominator": {
                  "value": 0,
                  "code": "100000110756",
                  "system": "http://spor.ema.europa.eu/v1/lists/100000110633",
                  "unit": "unit(s)"
                }
              }
            }
          ]
        }
      }
    },
    {
      "resource": {
        "resourceType": "Ingredient",
        "id": "HydrokortisonOrifarm20mgTablett-SE-PLC-Ingredient05",
        "meta": {
          "profile": [
            "http://unicom-project.eu/fhir/StructureDefinition/PPLIngredient"
          ]
        },
        "status": "active",
        "for": [
          {
            "reference": "MedicinalProductDefinition/HydrokortisonOrifarm20mgTablett-SE-PLC-MedicinalProductDef"
          },
          {
            "reference": "ManufacturedItemDefinition/HydrokortisonOrifarm20mgTablett-SE-PLC-ManufacturedItemDef"
          },
          {
            "reference": "AdministrableProductDefinition/HydrokortisonOrifarm20mgTablett-SE-PLC-AdminProductDef"
          }
        ],
        "role": {
          "coding": [
            {
              "code": "100000072082",
              "system": "https://spor.ema.europa.eu/v1/lists/100000072050",
              "display": "Excipient"
            }
          ]
        },
        "substance": {
          "code": {
            "concept": {
              "coding": [
                {
                  "code": "100000079864",
                  "system": "https://spor.azure-api.net/sms/api/v2/SubstanceDefinition",
                  "display": "Potato starch"
                }
              ]
            }
          },
          "strength": [
            {
              "concentrationRatio": {
                "numerator": {
                  "value": 0,
                  "code": "100000110655",
                  "system": "http://spor.ema.europa.eu/v1/lists/100000110633",
                  "unit": "milligram(s)"
                },
                "denominator": {
                  "value": 0,
                  "code": "100000110756",
                  "system": "http://spor.ema.europa.eu/v1/lists/100000110633",
                  "unit": "unit(s)"
                }
              }
            }
          ]
        }
      }
    },
    {
      "resource": {
        "resourceType": "Ingredient",
        "id": "HydrokortisonOrifarm20mgTablett-SE-PLC-Ingredient06",
        "meta": {
          "profile": [
            "http://unicom-project.eu/fhir/StructureDefinition/PPLIngredient"
          ]
        },
        "status": "active",
        "for": [
          {
            "reference": "MedicinalProductDefinition/HydrokortisonOrifarm20mgTablett-SE-PLC-MedicinalProductDef"
          },
          {
            "reference": "ManufacturedItemDefinition/HydrokortisonOrifarm20mgTablett-SE-PLC-ManufacturedItemDef"
          },
          {
            "reference": "AdministrableProductDefinition/HydrokortisonOrifarm20mgTablett-SE-PLC-AdminProductDef"
          }
        ],
        "role": {
          "coding": [
            {
              "code": "100000072082",
              "system": "https://spor.ema.europa.eu/v1/lists/100000072050",
              "display": "Excipient"
            }
          ]
        },
        "substance": {
          "code": {
            "concept": {
              "coding": [
                {
                  "code": "100000078762",
                  "system": "https://spor.azure-api.net/sms/api/v2/SubstanceDefinition",
                  "display": "Talc"
                }
              ]
            }
          },
          "strength": [
            {
              "concentrationRatio": {
                "numerator": {
                  "value": 0,
                  "code": "100000110655",
                  "system": "http://spor.ema.europa.eu/v1/lists/100000110633",
                  "unit": "milligram(s)"
                },
                "denominator": {
                  "value": 0,
                  "code": "100000110756",
                  "system": "http://spor.ema.europa.eu/v1/lists/100000110633",
                  "unit": "unit(s)"
                }
              }
            }
          ]
        }
      }
    }
  ]
}
