{
  "resourceType": "Bundle",
  "id": "GOFSH-GENERATED-ID-43",
  "type": "collection",
  "entry": [
    {
      "resource": {
        "resourceType": "MedicinalProductDefinition",
        "id": "CiklosporinIVAX25mgkapselmjuk-SE-PLC-MedicinalProductDef",
        "meta": {
          "profile": [
            "http://unicom-project.eu/fhir/StructureDefinition/PPLMedicinalProductDefinition"
          ]
        },
        "identifier": [
          {
            "system": "http://ema.europa.eu/fhir/mpId",
            "value": "SE-100001594-00019567"
          },
          {
            "system": "http://ema.europa.eu/fhir/eurdId",
            "value": "745"
          }
        ],
        "name": [
          {
            "usage": [
              {
                "country": {
                  "coding": [
                    {
                      "system": "https://spor.ema.europa.eu/v1/lists/100000000002",
                      "display": "Sweden"
                    }
                  ]
                },
                "language": {
                  "coding": [
                    {
                      "code": "sv",
                      "system": "urn:ietf:bcp:47",
                      "display": "Swedish"
                    }
                  ]
                }
              }
            ],
            "productName": "Ciklosporin IVAX 25 mg kapsel, mjuk"
          }
        ],
        "combinedPharmaceuticalDoseForm": {
          "coding": [
            {
              "code": "100000073660",
              "system": "https://spor.ema.europa.eu/v1/lists/200000000004~200000000006~200000000007~200000000008",
              "display": "Capsule, soft"
            }
          ]
        },
        "domain": {
          "coding": [
            {
              "code": "100000000012",
              "system": "https://spor.ema.europa.eu/v1/lists/100000000004",
              "display": "Human use"
            }
          ]
        },
        "status": {
          "coding": [
            {
              "code": "200000005004",
              "system": "https://spor.ema.europa.eu/v1/lists/200000005003",
              "display": "Current"
            }
          ]
        },
        "indication": "Transplantationsindikationer Organtransplantation För prevention av transplantatavstötning efter organtransplantation. Behandling av cellmedierad transplantatavstötning hos patienter, som tidigare fått annan immunsuppressiv behandling.   Benmärgstransplantation För prevention av transplantatavstötning efter allogen benmärgs- och stamcellstransplantation. Profylax eller behandling av graft-versus-host disease (GVHD).   Andra indikationer än vid transplantation Endogen uveit  Behandling av synhotande, intermediär eller posterior uveit av icke-infektiöst ursprung hos patienter där konventionell behandling sviktat eller orsakat oacceptabla biverkningar.   Behandling av Behçets uveit med upprepade inflammationer som drabbar retina hos patienter utan neurologiska manifestationer.   Nefrotiskt syndrom  Steroidberoende eller steroidresistent nefrotiskt syndrom orsakat av primär glomerulär sjukdom som “minimalchange” nefropati, , fokal och segmentel glomeruloskleros, eller membranös glomerulonefrit.  Ciklosporin Ivax kan användas för att inducera och upprätthålla remission. Det kan också användas för att upprätthålla steroidinducerad remission och möjliggöra utsättning av steroidbehandling.   Psoriasis  Behandling av svår psoriasis, hos patienter där konventionell behandling är olämplig eller ineffektiv.   Atopisk dermatit  Ciklosporin Ivax är indicerat för patienter med svår atopisk dermatit när systemisk behandling krävs.   Reumatoid artrit  Behandling av svår, aktiv reumatoid artrit.",
        "legalStatusOfSupply": {
          "coding": [
            {
              "code": "100000072084",
              "system": "https://spor.ema.europa.eu/v1/lists/100000072051",
              "display": "Medicinal product subject to medical prescription"
            }
          ]
        },
        "classification": [
          {
            "coding": [
              {
                "code": "100000096879",
                "system": "https://spor.ema.europa.eu/v1/lists/100000093533",
                "display": "L04AD01"
              }
            ]
          }
        ]
      }
    },
    {
      "resource": {
        "resourceType": "RegulatedAuthorization",
        "id": "CiklosporinIVAX25mgkapselmjuk-SE-PLC-RegAutho",
        "meta": {
          "profile": [
            "http://unicom-project.eu/fhir/StructureDefinition/PPLRegulatedAuthorization"
          ]
        },
        "type": {
          "coding": [
            {
              "system": "https://spor.ema.europa.eu/v1/lists/220000000060",
              "code": "220000000061",
              "display": "Marketing Authorisation"
            }
          ]
        },
        "identifier": [
          {
            "system": "http://ema.europa.eu/fhir/marketingAuthorizationNumber",
            "value": "19567"
          }
        ],
        "subject": [
          {
            "reference": "MedicinalProductDefinition/CiklosporinIVAX25mgkapselmjuk-SE-PLC-MedicinalProductDef"
          }
        ],
        "region": [
          {
            "coding": [
              {
                "code": "100000000535",
                "system": "https://spor.ema.europa.eu/v1/lists/100000000002",
                "display": "Sweden"
              }
            ]
          }
        ],
        "status": {
          "coding": [
            {
              "code": "100000072099",
              "system": "https://spor.ema.europa.eu/v1/lists/100000072049",
              "display": "Valid"
            }
          ]
        },
        "statusDate": "2005-02-11",
        "case": {
          "type": {
            "coding": [
              {
                "code": "dateOfFirstAuthorisation",
                "system": "https://ema.europa.eu/fhir/authorisationDateType",
                "display": "First Authorisation"
              }
            ]
          },
          "dateDateTime": "2005-02-11"
        },
        "holder": {
          "reference": "Organization/LOC-100007927"
        }
      }
    },
    {
      "resource": {
        "resourceType": "AdministrableProductDefinition",
        "id": "CiklosporinIVAX25mgkapselmjuk-SE-PLC-AdminProductDef",
        "meta": {
          "profile": [
            "http://unicom-project.eu/fhir/StructureDefinition/PPLAdministrableProductDefinition"
          ]
        },
        "status": "active",
        "formOf": [
          {
            "reference": "MedicinalProductDefinition/CiklosporinIVAX25mgkapselmjuk-SE-PLC-MedicinalProductDef"
          }
        ],
        "administrableDoseForm": {
          "coding": [
            {
              "code": "100000073660",
              "system": "https://spor.ema.europa.eu/v1/lists/200000000004",
              "display": "Capsule, soft"
            }
          ]
        },
        "producedFrom": [
          {
            "reference": "ManufacturedItemDefinition/CiklosporinIVAX25mgkapselmjuk-SE-PLC-ManufacturedItemDef"
          }
        ],
        "routeOfAdministration": [
          {
            "code": {
              "coding": [
                {
                  "code": "100000073619",
                  "system": "https://spor.ema.europa.eu/v1/lists/100000073345",
                  "display": "Oral use"
                }
              ]
            }
          }
        ]
      }
    },
    {
      "resource": {
        "resourceType": "PackagedProductDefinition",
        "id": "CiklosporinIVAX25mgkapselmjuk-SE-PLC-PackageProductDef",
        "meta": {
          "profile": [
            "http://unicom-project.eu/fhir/StructureDefinition/PPLPackagedProductDefinition"
          ]
        },
        "identifier": [
          {
            "system": "http://ema.europa.eu/example/pcid"
          }
        ],
        "packaging": {
          "type": {
            "coding": [
              {
                "system": "https://spor.ema.europa.eu/v1/lists/100000073346",
                "code": "100000073498",
                "display": "Box"
              }
            ]
          },
          "quantity": 1
        },
        "containedItemQuantity": [
          {
            "value": 50,
            "code": "200000002113",
            "system": "http://spor.ema.europa.eu/v1/lists/200000000014",
            "unit": "Capsule"
          }
        ],
        "packageFor": [
          {
            "reference": "MedicinalProductDefinition/CiklosporinIVAX25mgkapselmjuk-SE-PLC-MedicinalProductDef"
          }
        ],
        "description": "Blister, 1 x 50 kapslar (endos)",
        "marketingStatus": [
          {
            "country": {
              "coding": [
                {
                  "code": "100000000535",
                  "system": "https://spor.ema.europa.eu/v1/lists/100000000002",
                  "display": "Sweden"
                }
              ]
            },
            "status": {
              "coding": [
                {
                  "code": "100000072083",
                  "system": "https://spor.ema.europa.eu/v1/lists/100000072052",
                  "display": "Marketed"
                }
              ]
            }
          }
        ]
      }
    },
    {
      "resource": {
        "resourceType": "ManufacturedItemDefinition",
        "id": "CiklosporinIVAX25mgkapselmjuk-SE-PLC-ManufacturedItemDef",
        "meta": {
          "profile": [
            "http://unicom-project.eu/fhir/StructureDefinition/PPLManufacturedItemDefinition"
          ]
        },
        "status": "active",
        "manufacturedDoseForm": {
          "coding": [
            {
              "code": "100000073660",
              "system": "https://spor.ema.europa.eu/v1/lists/200000000004",
              "display": "Capsule, soft"
            }
          ]
        },
        "unitOfPresentation": {
          "coding": [
            {
              "code": "200000002113",
              "system": "https://spor.ema.europa.eu/v1/lists/200000000014",
              "display": "Capsule"
            }
          ]
        }
      }
    },
    {
      "resource": {
        "resourceType": "Ingredient",
        "id": "CiklosporinIVAX25mgkapselmjuk-SE-PLC-Ingredient",
        "meta": {
          "profile": [
            "http://unicom-project.eu/fhir/StructureDefinition/PPLIngredient"
          ]
        },
        "status": "active",
        "for": [
          {
            "reference": "MedicinalProductDefinition/CiklosporinIVAX25mgkapselmjuk-SE-PLC-MedicinalProductDef"
          },
          {
            "reference": "ManufacturedItemDefinition/CiklosporinIVAX25mgkapselmjuk-SE-PLC-ManufacturedItemDef"
          },
          {
            "reference": "AdministrableProductDefinition/CiklosporinIVAX25mgkapselmjuk-SE-PLC-AdminProductDef"
          }
        ],
        "role": {
          "coding": [
            {
              "code": "100000072072",
              "system": "https://spor.ema.europa.eu/v1/lists/100000072050",
              "display": "Active"
            }
          ]
        },
        "substance": {
          "code": {
            "concept": {
              "coding": [
                {
                  "code": "100000092121",
                  "system": "https://spor.azure-api.net/sms/api/v2/SubstanceDefinition",
                  "display": "Ciclosporin"
                }
              ]
            }
          },
          "strength": [
            {
              "presentationRatio": {
                "numerator": {
                  "value": 25,
                  "code": "100000110655",
                  "system": "https://spor.ema.europa.eu/v1/lists/100000110633",
                  "unit": "milligram(s)"
                },
                "denominator": {
                  "value": 1,
                  "code": "200000002113",
                  "system": "https://spor.ema.europa.eu/v1/lists/200000000014",
                  "unit": "Capsule"
                }
              },
              "referenceStrength": [
                {
                  "substance": {
                    "concept": {
                      "coding": [
                        {
                          "code": "100000092121",
                          "system": "https://spor.azure-api.net/sms/api/v2/SubstanceDefinition",
                          "display": "Ciclosporin"
                        }
                      ]
                    }
                  },
                  "strengthRatio": {
                    "numerator": {
                      "value": 25,
                      "code": "100000110655",
                      "system": "https://spor.ema.europa.eu/v1/lists/100000110633",
                      "unit": "milligram(s)"
                    },
                    "denominator": {
                      "value": 1,
                      "code": "200000002113",
                      "system": "https://spor.ema.europa.eu/v1/lists/200000000014",
                      "unit": "Capsule"
                    }
                  }
                }
              ]
            }
          ]
        }
      }
    }
  ]
}
