{
  "resourceType": "Bundle",
  "id": "GOFSH-GENERATED-ID-112",
  "type": "collection",
  "entry": [
    {
      "resource": {
        "resourceType": "MedicinalProductDefinition",
        "id": "ISOactavis-20mg-Capsule-SE-IS-MedicinalProductDefinition",
        "meta": {
          "profile": [
            "http://unicom-project.eu/fhir/StructureDefinition/PPLMedicinalProductDefinition"
          ]
        },
        "identifier": [
          {
            "system": "http://ema.europa.eu/fhir/mpId",
            "value": "SE-100000064-00048556"
          },
          {
            "system": "http://ema.europa.eu/fhir/eurdId",
            "value": "10488"
          }
        ],
        "combinedPharmaceuticalDoseForm": {
          "coding": [
            {
              "code": "100000073660",
              "system": "https://spor.ema.europa.eu/v1/lists/200000000004",
              "display": "Capsule, soft"
            }
          ]
        },
        "domain": {
          "coding": [
            {
              "code": "100000000012",
              "system": "https://spor.ema.europa.eu/v1/lists/100000000004",
              "display": "Human use"
            }
          ]
        },
        "status": {
          "coding": [
            {
              "code": "200000005004",
              "system": "https://spor.ema.europa.eu/v1/lists/200000005003",
              "display": "Current"
            }
          ]
        },
        "indication": "Svåra former av akne (till exempel nodulär eller konglobat akne eller akne med risk för permanent  ärrbildning) som inte kontrolleras med adekvat standardbehandling med systemiska antibakteriella  läkemedel och lokalbehandling.",
        "legalStatusOfSupply": {
          "coding": [
            {
              "code": "100000072084",
              "system": "https://spor.ema.europa.eu/v1/lists/100000072051",
              "display": "Medicinal product subject to medical prescription"
            }
          ]
        },
        "additionalMonitoringIndicator": {
          "coding": [
            {
              "code": "200000003918",
              "system": "https://spor.ema.europa.eu/v1/lists/200000003554",
              "display": "The medicinal product is included or removed from the list of medicinal products that are subject to additional monitoring (as applicable)."
            }
          ]
        },
        "classification": [
          {
            "coding": [
              {
                "code": "100000093533",
                "system": "https://spor.ema.europa.eu/v1/lists/100000116677",
                "display": "D10BA01"
              }
            ]
          }
        ],
        "name": [
          {
            "productName": "Isotretinoin Actavis 20 mg Kapsel, mjuk"
          }
        ]
      }
    },
    {
      "resource": {
        "resourceType": "RegulatedAuthorization",
        "id": "ISOactavis-20mg-Capsule-SE-IS-RegulatedAuthorization",
        "meta": {
          "profile": [
            "http://unicom-project.eu/fhir/StructureDefinition/PPLRegulatedAuthorization"
          ]
        },
        "type": {
          "coding": [
            {
              "system": "https://spor.ema.europa.eu/v1/lists/220000000060",
              "code": "220000000061",
              "display": "Marketing Authorisation"
            }
          ]
        },
        "identifier": [
          {
            "system": "http://ema.europa.eu/fhir/marketingAuthorizationNumber",
            "value": "48556"
          }
        ],
        "subject": [
          {
            "reference": "MedicinalProductDefinition/ISOactavis-20mg-Capsule-SE-IS-MedicinalProductDefinition"
          }
        ],
        "region": [
          {
            "coding": [
              {
                "code": "100000000535",
                "system": "https://spor.ema.europa.eu/v1/lists/100000000002",
                "display": "Sweden"
              }
            ]
          }
        ],
        "status": {
          "coding": [
            {
              "code": "100000072099",
              "system": "https://spor.ema.europa.eu/v1/lists/100000072049",
              "display": "Valid"
            }
          ]
        },
        "statusDate": "2013-10-10",
        "case": {
          "type": {
            "coding": [
              {
                "code": "dateOfFirstAuthorisation",
                "system": "https://ema.europa.eu/fhir/authorisationDateType",
                "display": "First Authorisation"
              }
            ]
          },
          "dateDateTime": "2013-10-10"
        },
        "holder": {
          "reference": "Organization/LOC-100001873"
        }
      }
    },
    {
      "resource": {
        "resourceType": "AdministrableProductDefinition",
        "id": "ISOactavis-20mg-Capsule-SE-IS-AdministrableProductDefinition",
        "meta": {
          "profile": [
            "http://unicom-project.eu/fhir/StructureDefinition/PPLAdministrableProductDefinition"
          ]
        },
        "status": "active",
        "formOf": [
          {
            "reference": "MedicinalProductDefinition/ISOactavis-20mg-Capsule-SE-IS-MedicinalProductDefinition"
          }
        ],
        "administrableDoseForm": {
          "coding": [
            {
              "code": "100000073660",
              "system": "https://spor.ema.europa.eu/v1/lists/200000000004",
              "display": "Capsule, soft"
            }
          ]
        },
        "producedFrom": [
          {
            "reference": "ManufacturedItemDefinition/ISOactavis-20mg-Capsule-SE-IS-ManufacturedItemDefinition"
          }
        ],
        "routeOfAdministration": [
          {
            "code": {
              "coding": [
                {
                  "code": "100000073619",
                  "system": "https://spor.ema.europa.eu/v1/lists/100000073345",
                  "display": "Oral use"
                }
              ]
            }
          }
        ]
      }
    },
    {
      "resource": {
        "resourceType": "PackagedProductDefinition",
        "id": "ISOactavis-20mg-Capsule-SE-IS-PackagedProductDefinition",
        "meta": {
          "profile": [
            "http://unicom-project.eu/fhir/StructureDefinition/PPLPackagedProductDefinition"
          ]
        },
        "identifier": [
          {
            "system": "http://ema.europa.eu/example/pcid"
          }
        ],
        "packaging": {
          "type": {
            "coding": [
              {
                "system": "https://spor.ema.europa.eu/v1/lists/100000073346",
                "code": "100000073498",
                "display": "Box"
              }
            ]
          },
          "quantity": 1
        },
        "containedItemQuantity": [
          {
            "value": 10,
            "code": "200000002113",
            "system": "http://spor.ema.europa.eu/v1/lists/200000000014",
            "unit": "Capsule"
          }
        ],
        "packageFor": [
          {
            "reference": "MedicinalProductDefinition/ISOactavis-20mg-Capsule-SE-IS-MedicinalProductDefinition"
          }
        ],
        "description": "Blister, 100 kapslar",
        "marketingStatus": [
          {
            "country": {
              "coding": [
                {
                  "code": "100000000535",
                  "system": "https://spor.ema.europa.eu/v1/lists/100000000002",
                  "display": "Sweden"
                }
              ]
            },
            "status": {
              "coding": [
                {
                  "code": "100000072083",
                  "system": "https://spor.ema.europa.eu/v1/lists/100000072052",
                  "display": "Marketed"
                }
              ]
            }
          }
        ]
      }
    },
    {
      "resource": {
        "resourceType": "ManufacturedItemDefinition",
        "id": "ISOactavis-20mg-Capsule-SE-IS-ManufacturedItemDefinition",
        "meta": {
          "profile": [
            "http://unicom-project.eu/fhir/StructureDefinition/PPLManufacturedItemDefinition"
          ]
        },
        "status": "active",
        "manufacturedDoseForm": {
          "coding": [
            {
              "code": "100000073660",
              "system": "https://spor.ema.europa.eu/v1/lists/200000000004",
              "display": "Capsule, soft"
            }
          ]
        },
        "unitOfPresentation": {
          "coding": [
            {
              "code": "200000002113",
              "system": "https://spor.ema.europa.eu/v1/lists/200000000014",
              "display": "Capsule"
            }
          ]
        }
      }
    },
    {
      "resource": {
        "resourceType": "Ingredient",
        "id": "ISOactavis-20mg-Capsule-SE-IS-Ingredient",
        "meta": {
          "profile": [
            "http://unicom-project.eu/fhir/StructureDefinition/PPLIngredient"
          ]
        },
        "status": "active",
        "for": [
          {
            "reference": "MedicinalProductDefinition/ISOactavis-20mg-Capsule-SE-IS-MedicinalProductDefinition"
          },
          {
            "reference": "ManufacturedItemDefinition/ISOactavis-20mg-Capsule-SE-IS-ManufacturedItemDefinition"
          },
          {
            "reference": "AdministrableProductDefinition/ISOactavis-20mg-Capsule-SE-IS-AdministrableProductDefinition"
          }
        ],
        "role": {
          "coding": [
            {
              "code": "100000072072",
              "system": "https://spor.ema.europa.eu/v1/lists/100000072050",
              "display": "Active"
            }
          ]
        },
        "substance": {
          "code": {
            "concept": {
              "coding": [
                {
                  "code": "100000089811",
                  "system": "https://spor.azure-api.net/sms/api/v2/SubstanceDefinition",
                  "display": "Isotretinoin"
                }
              ]
            }
          },
          "strength": [
            {
              "concentrationRatio": {
                "numerator": {
                  "value": 20,
                  "code": "100000110655",
                  "system": "http://spor.ema.europa.eu/v1/lists/100000110633",
                  "unit": "milligram(s)"
                },
                "denominator": {
                  "value": 1,
                  "code": "100000110756",
                  "system": "http://spor.ema.europa.eu/v1/lists/100000110633",
                  "unit": "unit(s)"
                }
              },
              "referenceStrength": [
                {
                  "substance": {
                    "concept": {
                      "coding": [
                        {
                          "code": "100000089811",
                          "system": "https://spor.azure-api.net/sms/api/v2/SubstanceDefinition",
                          "display": "Isotretinoin"
                        }
                      ]
                    }
                  },
                  "strengthRatio": {
                    "numerator": {
                      "value": 20,
                      "code": "100000110655",
                      "system": "http://spor.ema.europa.eu/v1/lists/100000110633",
                      "unit": "milligram(s)"
                    },
                    "denominator": {
                      "value": 1,
                      "code": "100000110756",
                      "system": "http://spor.ema.europa.eu/v1/lists/100000110633",
                      "unit": "unit(s)"
                    }
                  }
                }
              ]
            }
          ]
        }
      }
    }
  ]
}
