{
  "resourceType": "Bundle",
  "id": "GOFSH-GENERATED-ID-158",
  "type": "collection",
  "entry": [
    {
      "resource": {
        "resourceType": "MedicinalProductDefinition",
        "id": "Mydrane-InjSol-SE-AJ-MedicinalProductDefinition",
        "meta": {
          "profile": [
            "http://unicom-project.eu/fhir/StructureDefinition/PPLMedicinalProductDefinition"
          ]
        },
        "identifier": [
          {
            "system": "http://ema.europa.eu/fhir/mpId",
            "value": "SE-100001677-00051088"
          },
          {
            "system": "http://ema.europa.eu/fhir/eurdId",
            "value": "10390"
          }
        ],
        "name": [
          {
            "usage": [
              {
                "country": {
                  "coding": [
                    {
                      "system": "https://spor.ema.europa.eu/v1/lists/100000000002",
                      "display": "Sweden"
                    }
                  ]
                },
                "language": {
                  "coding": [
                    {
                      "code": "sv",
                      "system": "urn:ietf:bcp:47",
                      "display": "Swedish"
                    }
                  ]
                }
              }
            ],
            "productName": "Mydrane 0,2 mg/ml + 3,1 mg/ml + 10 mg/ml Injektionsvätska, lösning"
          }
        ],
        "combinedPharmaceuticalDoseForm": {
          "coding": [
            {
              "code": "100000073863",
              "system": "https://spor.ema.europa.eu/v1/lists/200000000004",
              "display": "Solution for injection"
            }
          ]
        },
        "domain": {
          "coding": [
            {
              "code": "100000000012",
              "system": "https://spor.ema.europa.eu/v1/lists/100000000004",
              "display": "Human use"
            }
          ]
        },
        "status": {
          "coding": [
            {
              "code": "200000005004",
              "system": "https://spor.ema.europa.eu/v1/lists/200000005003",
              "display": "Current"
            }
          ]
        },
        "indication": "Mydrane är avsett för kataraktkirurgi för att erhålla mydriasis och intraokulär anestesi under det kirurgiska ingreppet. Mydrane är endast avsett för vuxna.",
        "legalStatusOfSupply": {
          "coding": [
            {
              "code": "100000072084",
              "system": "https://spor.ema.europa.eu/v1/lists/100000072051",
              "display": "Medicinal product subject to medical prescription"
            }
          ]
        },
        "classification": [
          {
            "coding": [
              {
                "code": "100000098543",
                "system": "https://spor.ema.europa.eu/v1/lists/100000093533",
                "display": "S01FA56"
              }
            ]
          }
        ]
      }
    },
    {
      "resource": {
        "resourceType": "RegulatedAuthorization",
        "id": "Mydrane-InjSol-SE-AJ-RegulatedAuthorization",
        "meta": {
          "profile": [
            "http://unicom-project.eu/fhir/StructureDefinition/PPLRegulatedAuthorization"
          ]
        },
        "type": {
          "coding": [
            {
              "system": "https://spor.ema.europa.eu/v1/lists/220000000060",
              "code": "220000000061",
              "display": "Marketing Authorisation"
            }
          ]
        },
        "identifier": [
          {
            "system": "http://ema.europa.eu/fhir/marketingAuthorizationNumber",
            "value": "51088"
          }
        ],
        "subject": [
          {
            "reference": "MedicinalProductDefinition/Mydrane-InjSol-SE-AJ-MedicinalProductDefinition"
          }
        ],
        "region": [
          {
            "coding": [
              {
                "code": "100000000535",
                "system": "https://spor.ema.europa.eu/v1/lists/100000000002",
                "display": "Sweden"
              }
            ]
          }
        ],
        "status": {
          "coding": [
            {
              "code": "100000072099",
              "system": "https://spor.ema.europa.eu/v1/lists/100000072049",
              "display": "Valid"
            }
          ]
        },
        "statusDate": "2016-03-31",
        "case": {
          "type": {
            "coding": [
              {
                "code": "dateOfFirstAuthorisation",
                "system": "https://ema.europa.eu/fhir/authorisationDateType",
                "display": "First Authorisation"
              }
            ]
          },
          "dateDateTime": "2016-03-31"
        },
        "holder": {
          "reference": "Organization/LOC-100005605"
        }
      }
    },
    {
      "resource": {
        "resourceType": "AdministrableProductDefinition",
        "id": "Mydrane-InjSol-SE-AJ-AdministrableProductDefinition",
        "meta": {
          "profile": [
            "http://unicom-project.eu/fhir/StructureDefinition/PPLAdministrableProductDefinition"
          ]
        },
        "status": "active",
        "formOf": [
          {
            "reference": "MedicinalProductDefinition/Mydrane-InjSol-SE-AJ-MedicinalProductDefinition"
          }
        ],
        "administrableDoseForm": {
          "coding": [
            {
              "code": "100000073863",
              "system": "https://spor.ema.europa.eu/v1/lists/200000000004",
              "display": "Solution for injection"
            }
          ]
        },
        "producedFrom": [
          {
            "reference": "ManufacturedItemDefinition/Mydrane-InjSol-SE-AJ-ManufacturedItemDefinition"
          }
        ],
        "routeOfAdministration": [
          {
            "code": {
              "coding": [
                {
                  "code": "100000125763",
                  "system": "https://spor.ema.europa.eu/v1/lists/100000073345",
                  "display": "Intracameral use"
                }
              ]
            }
          }
        ]
      }
    },
    {
      "resource": {
        "resourceType": "PackagedProductDefinition",
        "id": "Mydrane-InjSol-SE-AJ-PackagedProductDefinition01",
        "meta": {
          "profile": [
            "http://unicom-project.eu/fhir/StructureDefinition/PPLPackagedProductDefinition"
          ]
        },
        "identifier": [
          {
            "system": "http://ema.europa.eu/example/pcid"
          }
        ],
        "packaging": {
          "type": {
            "coding": [
              {
                "system": "https://spor.ema.europa.eu/v1/lists/100000073346",
                "code": "100000073498",
                "display": "Box"
              }
            ]
          },
          "quantity": 1
        },
        "containedItemQuantity": [
          {
            "value": 20,
            "code": "200000002164",
            "system": "http://spor.ema.europa.eu/v1/lists/200000000014",
            "unit": "Ampoule"
          }
        ],
        "packageFor": [
          {
            "reference": "MedicinalProductDefinition/Mydrane-InjSol-SE-AJ-MedicinalProductDefinition"
          }
        ],
        "description": "Ampull, 20 x 0,6 ml (Blister med en ampull och en filterkanyl.)",
        "marketingStatus": [
          {
            "country": {
              "coding": [
                {
                  "code": "100000000535",
                  "system": "https://spor.ema.europa.eu/v1/lists/100000000002",
                  "display": "Sweden"
                }
              ]
            },
            "status": {
              "coding": [
                {
                  "code": "100000072083",
                  "system": "https://spor.ema.europa.eu/v1/lists/100000072052",
                  "display": "Marketed"
                }
              ]
            }
          }
        ]
      }
    },
    {
      "resource": {
        "resourceType": "PackagedProductDefinition",
        "id": "Mydrane-InjSol-SE-AJ-PackagedProductDefinition02",
        "meta": {
          "profile": [
            "http://unicom-project.eu/fhir/StructureDefinition/PPLPackagedProductDefinition"
          ]
        },
        "identifier": [
          {
            "system": "http://ema.europa.eu/example/pcid"
          }
        ],
        "packaging": {
          "type": {
            "coding": [
              {
                "system": "https://spor.ema.europa.eu/v1/lists/100000073346",
                "code": "100000073498",
                "display": "Box"
              }
            ]
          },
          "quantity": 1
        },
        "containedItemQuantity": [
          {
            "value": 20,
            "code": "200000002164",
            "system": "http://spor.ema.europa.eu/v1/lists/200000000014",
            "unit": "Ampoule"
          }
        ],
        "packageFor": [
          {
            "reference": "MedicinalProductDefinition/Mydrane-InjSol-SE-AJ-MedicinalProductDefinition"
          }
        ],
        "description": "Ampull, 20 x 0,6 ml (Blister med en ampull. Filterkanyl i separat blister.)",
        "marketingStatus": [
          {
            "country": {
              "coding": [
                {
                  "code": "100000000535",
                  "system": "https://spor.ema.europa.eu/v1/lists/100000000002",
                  "display": "Sweden"
                }
              ]
            },
            "status": {
              "coding": [
                {
                  "code": "100000072083",
                  "system": "https://spor.ema.europa.eu/v1/lists/100000072052",
                  "display": "Marketed"
                }
              ]
            }
          }
        ]
      }
    },
    {
      "resource": {
        "resourceType": "ManufacturedItemDefinition",
        "id": "Mydrane-InjSol-SE-AJ-ManufacturedItemDefinition",
        "meta": {
          "profile": [
            "http://unicom-project.eu/fhir/StructureDefinition/PPLManufacturedItemDefinition"
          ]
        },
        "status": "active",
        "manufacturedDoseForm": {
          "coding": [
            {
              "code": "100000073863",
              "system": "https://spor.ema.europa.eu/v1/lists/200000000004",
              "display": "Solution for injection"
            }
          ]
        },
        "unitOfPresentation": {
          "coding": [
            {
              "code": "200000002164",
              "system": "https://spor.ema.europa.eu/v1/lists/200000000014",
              "display": "Ampoule"
            }
          ]
        }
      }
    },
    {
      "resource": {
        "resourceType": "Ingredient",
        "id": "Mydrane-InjSol-SE-AJ-Ingredient01",
        "meta": {
          "profile": [
            "http://unicom-project.eu/fhir/StructureDefinition/PPLIngredient"
          ]
        },
        "status": "active",
        "for": [
          {
            "reference": "MedicinalProductDefinition/Mydrane-InjSol-SE-AJ-MedicinalProductDefinition"
          },
          {
            "reference": "ManufacturedItemDefinition/Mydrane-InjSol-SE-AJ-ManufacturedItemDefinition"
          },
          {
            "reference": "AdministrableProductDefinition/Mydrane-InjSol-SE-AJ-AdministrableProductDefinition"
          }
        ],
        "role": {
          "coding": [
            {
              "code": "100000072072",
              "system": "https://spor.ema.europa.eu/v1/lists/100000072050",
              "display": "Active"
            }
          ]
        },
        "substance": {
          "code": {
            "concept": {
              "coding": [
                {
                  "code": "100000139489",
                  "system": "https://spor.azure-api.net/sms/api/v2/SubstanceDefinition",
                  "display": "Lidocaine hydrochloride"
                }
              ]
            }
          },
          "strength": [
            {
              "concentrationRatio": {
                "numerator": {
                  "value": 10,
                  "code": "100000110655",
                  "system": "http://spor.ema.europa.eu/v1/lists/100000110633",
                  "unit": "milligram(s)"
                },
                "denominator": {
                  "value": 1,
                  "code": "100000110662",
                  "system": "http://spor.ema.europa.eu/v1/lists/100000110633",
                  "unit": "millilitre(s)"
                }
              },
              "referenceStrength": [
                {
                  "substance": {
                    "concept": {
                      "coding": [
                        {
                          "code": "100000091713",
                          "system": "https://spor.azure-api.net/sms/api/v2/SubstanceDefinition",
                          "display": "Lidocaine"
                        }
                      ]
                    }
                  },
                  "strengthRatio": {
                    "numerator": {
                      "value": 8.65,
                      "code": "100000110655",
                      "system": "https://spor.ema.europa.eu/v1/lists/100000110633",
                      "unit": "milligram(s)"
                    },
                    "denominator": {
                      "value": 1,
                      "code": "100000110662",
                      "system": "https://spor.ema.europa.eu/v1/lists/100000110633",
                      "unit": "millilitre(s)"
                    }
                  }
                }
              ]
            }
          ]
        }
      }
    },
    {
      "resource": {
        "resourceType": "Ingredient",
        "id": "Mydrane-InjSol-SE-AJ-Ingredient02",
        "meta": {
          "profile": [
            "http://unicom-project.eu/fhir/StructureDefinition/PPLIngredient"
          ]
        },
        "status": "active",
        "for": [
          {
            "reference": "MedicinalProductDefinition/Mydrane-InjSol-SE-AJ-MedicinalProductDefinition"
          },
          {
            "reference": "ManufacturedItemDefinition/Mydrane-InjSol-SE-AJ-ManufacturedItemDefinition"
          },
          {
            "reference": "AdministrableProductDefinition/Mydrane-InjSol-SE-AJ-AdministrableProductDefinition"
          }
        ],
        "role": {
          "coding": [
            {
              "code": "100000072072",
              "system": "https://spor.ema.europa.eu/v1/lists/100000072050",
              "display": "Active"
            }
          ]
        },
        "substance": {
          "code": {
            "concept": {
              "coding": [
                {
                  "code": "100000160254",
                  "system": "https://spor.azure-api.net/sms/api/v2/SubstanceDefinition",
                  "display": "Phenylephrine hydrochloride ph. eur."
                }
              ]
            }
          },
          "strength": [
            {
              "concentrationRatio": {
                "numerator": {
                  "value": 3.1,
                  "code": "100000110655",
                  "system": "http://spor.ema.europa.eu/v1/lists/100000110633",
                  "unit": "milligram(s)"
                },
                "denominator": {
                  "value": 1,
                  "code": "100000110662",
                  "system": "http://spor.ema.europa.eu/v1/lists/100000110633",
                  "unit": "millilitre(s)"
                }
              },
              "referenceStrength": [
                {
                  "substance": {
                    "concept": {
                      "coding": [
                        {
                          "code": "100000088260",
                          "system": "https://spor.azure-api.net/sms/api/v2/SubstanceDefinition",
                          "display": "Phenylephrine"
                        }
                      ]
                    }
                  },
                  "strengthRatio": {
                    "numerator": {
                      "value": 2.54,
                      "code": "100000110655",
                      "system": "https://spor.ema.europa.eu/v1/lists/100000110633",
                      "unit": "milligram(s)"
                    },
                    "denominator": {
                      "value": 1,
                      "code": "100000110662",
                      "system": "https://spor.ema.europa.eu/v1/lists/100000110633",
                      "unit": "millilitre(s)"
                    }
                  }
                }
              ]
            }
          ]
        }
      }
    },
    {
      "resource": {
        "resourceType": "Ingredient",
        "id": "Mydrane-InjSol-SE-AJ-Ingredient03",
        "meta": {
          "profile": [
            "http://unicom-project.eu/fhir/StructureDefinition/PPLIngredient"
          ]
        },
        "status": "active",
        "for": [
          {
            "reference": "MedicinalProductDefinition/Mydrane-InjSol-SE-AJ-MedicinalProductDefinition"
          },
          {
            "reference": "ManufacturedItemDefinition/Mydrane-InjSol-SE-AJ-ManufacturedItemDefinition"
          },
          {
            "reference": "AdministrableProductDefinition/Mydrane-InjSol-SE-AJ-AdministrableProductDefinition"
          }
        ],
        "role": {
          "coding": [
            {
              "code": "100000072072",
              "system": "https://spor.ema.europa.eu/v1/lists/100000072050",
              "display": "Active"
            }
          ]
        },
        "substance": {
          "code": {
            "concept": {
              "coding": [
                {
                  "code": "100000091954",
                  "system": "https://spor.azure-api.net/sms/api/v2/SubstanceDefinition",
                  "display": "Tropicamide"
                }
              ]
            }
          },
          "strength": [
            {
              "concentrationRatio": {
                "numerator": {
                  "value": 0.2,
                  "code": "100000110655",
                  "system": "http://spor.ema.europa.eu/v1/lists/100000110633",
                  "unit": "milligram(s)"
                },
                "denominator": {
                  "value": 1,
                  "code": "100000110662",
                  "system": "http://spor.ema.europa.eu/v1/lists/100000110633",
                  "unit": "millilitre(s)"
                }
              },
              "referenceStrength": [
                {
                  "substance": {
                    "concept": {
                      "coding": [
                        {
                          "code": "100000091954",
                          "system": "https://spor.azure-api.net/sms/api/v2/SubstanceDefinition",
                          "display": "Tropicamide"
                        }
                      ]
                    }
                  },
                  "strengthRatio": {
                    "numerator": {
                      "value": 0.2,
                      "code": "100000110655",
                      "system": "https://spor.ema.europa.eu/v1/lists/100000110633",
                      "unit": "milligram(s)"
                    },
                    "denominator": {
                      "value": 1,
                      "code": "100000110662",
                      "system": "https://spor.ema.europa.eu/v1/lists/100000110633",
                      "unit": "millilitre(s)"
                    }
                  }
                }
              ]
            }
          ]
        }
      }
    }
  ]
}
