{
  "resourceType": "Bundle",
  "id": "GOFSH-GENERATED-ID-5",
  "type": "collection",
  "entry": [
    {
      "resource": {
        "resourceType": "MedicinalProductDefinition",
        "id": "Alvedon250mgMunsonderTablett-SE-PLC-MedicinalProductDef",
        "meta": {
          "profile": [
            "http://unicom-project.eu/fhir/StructureDefinition/PPLMedicinalProductDefinition"
          ]
        },
        "identifier": [
          {
            "system": "http://ema.europa.eu/fhir/mpId",
            "value": "SE-100000478-00016408"
          },
          {
            "system": "http://ema.europa.eu/fhir/eurdId",
            "value": "2283"
          }
        ],
        "name": [
          {
            "usage": [
              {
                "country": {
                  "coding": [
                    {
                      "system": "https://spor.ema.europa.eu/v1/lists/100000000002",
                      "display": "Sweden"
                    }
                  ]
                },
                "language": {
                  "coding": [
                    {
                      "code": "sv",
                      "system": "urn:ietf:bcp:47",
                      "display": "Swedish"
                    }
                  ]
                }
              }
            ],
            "productName": "Alvedon 250 mg Munsönderfallande tablett"
          }
        ],
        "combinedPharmaceuticalDoseForm": {
          "coding": [
            {
              "code": "100000073666",
              "system": "https://spor.ema.europa.eu/v1/lists/200000000004~200000000006~200000000007~200000000008",
              "display": "Orodispersible tablet"
            }
          ]
        },
        "domain": {
          "coding": [
            {
              "code": "100000000012",
              "system": "https://spor.ema.europa.eu/v1/lists/100000000004",
              "display": "Human use"
            }
          ]
        },
        "status": {
          "coding": [
            {
              "code": "200000005004",
              "system": "https://spor.ema.europa.eu/v1/lists/200000005003",
              "display": "Current"
            }
          ]
        },
        "indication": "Alvedon 250 mg Munsönderfallande tablett är indicerat för huvudvärk, tandvärk, feber vid förkylningssjukdomar, menstruationssmärtor, muskel- och  ledvärk, som analgetikum vid reumatiska smärtor, hyperpyrexi. Används av vuxna och barn över 3 år.",
        "legalStatusOfSupply": {
          "coding": [
            {
              "code": "100000072076",
              "system": "https://spor.ema.europa.eu/v1/lists/100000072051",
              "display": "Medicinal product not subject to medical prescription"
            }
          ]
        },
        "classification": [
          {
            "coding": [
              {
                "code": "100000097305",
                "system": "https://spor.ema.europa.eu/v1/lists/100000093533",
                "display": "N02BE01"
              }
            ]
          }
        ]
      }
    },
    {
      "resource": {
        "resourceType": "RegulatedAuthorization",
        "id": "Alvedon250mgMunsonderTablett-SE-PLC-RegAutho",
        "meta": {
          "profile": [
            "http://unicom-project.eu/fhir/StructureDefinition/PPLRegulatedAuthorization"
          ]
        },
        "type": {
          "coding": [
            {
              "system": "https://spor.ema.europa.eu/v1/lists/220000000060",
              "code": "220000000061",
              "display": "Marketing Authorisation"
            }
          ]
        },
        "identifier": [
          {
            "system": "http://ema.europa.eu/fhir/marketingAuthorizationNumber",
            "value": "16408"
          }
        ],
        "subject": [
          {
            "reference": "MedicinalProductDefinition/Alvedon250mgMunsonderTablett-SE-PLC-MedicinalProductDef"
          }
        ],
        "region": [
          {
            "coding": [
              {
                "code": "100000000535",
                "system": "https://spor.ema.europa.eu/v1/lists/100000000002",
                "display": "Sweden"
              }
            ]
          }
        ],
        "status": {
          "coding": [
            {
              "code": "100000072099",
              "system": "https://spor.ema.europa.eu/v1/lists/100000072049",
              "display": "Valid"
            }
          ]
        },
        "statusDate": "2001-06-01",
        "case": {
          "type": {
            "coding": [
              {
                "code": "dateOfFirstAuthorisation",
                "system": "https://ema.europa.eu/fhir/authorisationDateType",
                "display": "First Authorisation"
              }
            ]
          },
          "dateDateTime": "2001-06-01"
        },
        "holder": {
          "reference": "Organization/LOC-100001462"
        }
      }
    },
    {
      "resource": {
        "resourceType": "AdministrableProductDefinition",
        "id": "Alvedon250mgMunsonderTablett-SE-PLC-AdminProductDef",
        "meta": {
          "profile": [
            "http://unicom-project.eu/fhir/StructureDefinition/PPLAdministrableProductDefinition"
          ]
        },
        "status": "active",
        "formOf": [
          {
            "reference": "MedicinalProductDefinition/Alvedon250mgMunsonderTablett-SE-PLC-MedicinalProductDef"
          }
        ],
        "administrableDoseForm": {
          "coding": [
            {
              "code": "100000073666",
              "system": "https://spor.ema.europa.eu/v1/lists/200000000004",
              "display": "Orodispersible tablet"
            }
          ]
        },
        "producedFrom": [
          {
            "reference": "ManufacturedItemDefinition/Alvedon250mgMunsonderTablett-SE-PLC-ManufacturedItemDef"
          }
        ],
        "routeOfAdministration": [
          {
            "code": {
              "coding": [
                {
                  "code": "100000073619",
                  "system": "https://spor.ema.europa.eu/v1/lists/100000073345",
                  "display": "Oral use"
                }
              ]
            }
          }
        ]
      }
    },
    {
      "resource": {
        "resourceType": "PackagedProductDefinition",
        "id": "Alvedon250mgMunsonderTablett-SE-PLC-PackageProductDef",
        "meta": {
          "profile": [
            "http://unicom-project.eu/fhir/StructureDefinition/PPLPackagedProductDefinition"
          ]
        },
        "identifier": [
          {
            "system": "http://ema.europa.eu/example/pcid"
          }
        ],
        "packaging": {
          "type": {
            "coding": [
              {
                "system": "https://spor.ema.europa.eu/v1/lists/100000073346",
                "code": "100000073498",
                "display": "Box"
              }
            ]
          },
          "quantity": 1
        },
        "containedItemQuantity": [
          {
            "value": 12,
            "code": "200000002152",
            "system": "http://spor.ema.europa.eu/v1/lists/200000000014",
            "unit": "Tablet"
          }
        ],
        "packageFor": [
          {
            "reference": "MedicinalProductDefinition/Alvedon250mgMunsonderTablett-SE-PLC-MedicinalProductDef"
          }
        ],
        "description": "Blister, 12 tabletter",
        "marketingStatus": [
          {
            "country": {
              "coding": [
                {
                  "code": "100000000535",
                  "system": "https://spor.ema.europa.eu/v1/lists/100000000002",
                  "display": "Sweden"
                }
              ]
            },
            "status": {
              "coding": [
                {
                  "code": "100000072083",
                  "system": "https://spor.ema.europa.eu/v1/lists/100000072052",
                  "display": "Marketed"
                }
              ]
            }
          }
        ]
      }
    },
    {
      "resource": {
        "resourceType": "ManufacturedItemDefinition",
        "id": "Alvedon250mgMunsonderTablett-SE-PLC-ManufacturedItemDef",
        "meta": {
          "profile": [
            "http://unicom-project.eu/fhir/StructureDefinition/PPLManufacturedItemDefinition"
          ]
        },
        "status": "active",
        "manufacturedDoseForm": {
          "coding": [
            {
              "code": "100000073666",
              "system": "https://spor.ema.europa.eu/v1/lists/200000000004",
              "display": "Orodispersible tablet"
            }
          ]
        },
        "unitOfPresentation": {
          "coding": [
            {
              "code": "200000002152",
              "system": "https://spor.ema.europa.eu/v1/lists/200000000014",
              "display": "Tablet"
            }
          ]
        }
      }
    },
    {
      "resource": {
        "resourceType": "Ingredient",
        "id": "Alvedon250mgMunsonderTablett-SE-PLC-Ingredient",
        "meta": {
          "profile": [
            "http://unicom-project.eu/fhir/StructureDefinition/PPLIngredient"
          ]
        },
        "status": "active",
        "for": [
          {
            "reference": "MedicinalProductDefinition/Alvedon250mgMunsonderTablett-SE-PLC-MedicinalProductDef"
          },
          {
            "reference": "ManufacturedItemDefinition/Alvedon250mgMunsonderTablett-SE-PLC-ManufacturedItemDef"
          },
          {
            "reference": "AdministrableProductDefinition/Alvedon250mgMunsonderTablett-SE-PLC-AdminProductDef"
          }
        ],
        "role": {
          "coding": [
            {
              "code": "100000072072",
              "system": "https://spor.ema.europa.eu/v1/lists/100000072050",
              "display": "Active"
            }
          ]
        },
        "substance": {
          "code": {
            "concept": {
              "coding": [
                {
                  "code": "100000090270",
                  "system": "https://spor.azure-api.net/sms/api/v2/SubstanceDefinition",
                  "display": "Paracetamol"
                }
              ]
            }
          },
          "strength": [
            {
              "presentationRatio": {
                "numerator": {
                  "value": 250,
                  "code": "100000110655",
                  "system": "https://spor.ema.europa.eu/v1/lists/100000110633",
                  "unit": "milligram(s)"
                },
                "denominator": {
                  "value": 1,
                  "code": "200000002152",
                  "system": "https://spor.ema.europa.eu/v1/lists/200000000014",
                  "unit": "Tablet"
                }
              },
              "referenceStrength": [
                {
                  "substance": {
                    "concept": {
                      "coding": [
                        {
                          "code": "100000090270",
                          "system": "https://spor.azure-api.net/sms/api/v2/SubstanceDefinition",
                          "display": "Paracetamol"
                        }
                      ]
                    }
                  },
                  "strengthRatio": {
                    "numerator": {
                      "value": 250,
                      "code": "100000110655",
                      "system": "https://spor.ema.europa.eu/v1/lists/100000110633",
                      "unit": "milligram(s)"
                    },
                    "denominator": {
                      "value": 1,
                      "code": "200000002152",
                      "system": "https://spor.ema.europa.eu/v1/lists/200000000014",
                      "unit": "Tablet"
                    }
                  }
                }
              ]
            }
          ]
        }
      }
    }
  ]
}
