{
  "resourceType": "Bundle",
  "id": "GOFSH-GENERATED-ID-155",
  "type": "collection",
  "entry": [
    {
      "resource": {
        "resourceType": "MedicinalProductDefinition",
        "id": "MorfinMeda-10mgml-Solution-SE-BS-MedicinalProductDefinition",
        "meta": {
          "profile": [
            "http://unicom-project.eu/fhir/StructureDefinition/PPLMedicinalProductDefinition"
          ]
        },
        "identifier": [
          {
            "system": "http://ema.europa.eu/fhir/mpId",
            "value": "SE-100001270-00008820"
          },
          {
            "system": "http://ema.europa.eu/fhir/eurdId",
            "value": "10549"
          }
        ],
        "combinedPharmaceuticalDoseForm": {
          "coding": [
            {
              "code": "100000073863",
              "system": "https://spor.ema.europa.eu/v1/lists/200000000004~200000000006~200000000007~200000000008",
              "display": "Solution for injection"
            }
          ]
        },
        "domain": {
          "coding": [
            {
              "code": "100000000012",
              "system": "https://spor.ema.europa.eu/v1/lists/100000000004",
              "display": "Human use"
            }
          ]
        },
        "status": {
          "coding": [
            {
              "code": "200000005004",
              "system": "https://spor.ema.europa.eu/v1/lists/200000005003",
              "display": "Current"
            }
          ]
        },
        "indication": "Svåra smärttillstånd.",
        "legalStatusOfSupply": {
          "coding": [
            {
              "code": "100000072085",
              "system": "https://spor.ema.europa.eu/v1/lists/100000072051",
              "display": "Medicinal product subject to special medical prescription"
            }
          ]
        },
        "classification": [
          {
            "coding": [
              {
                "code": "100000097139",
                "system": "https://spor.ema.europa.eu/v1/lists/100000093533",
                "display": "N02AA01"
              }
            ]
          }
        ],
        "name": [
          {
            "productName": "Morfin Meda 10 mg/ml injektionsvätska, lösning "
          }
        ]
      }
    },
    {
      "resource": {
        "resourceType": "RegulatedAuthorization",
        "id": "MorfinMeda-10mgml-Solution-SE-BS-RegulatedAuthorization",
        "meta": {
          "profile": [
            "http://unicom-project.eu/fhir/StructureDefinition/PPLRegulatedAuthorization"
          ]
        },
        "type": {
          "coding": [
            {
              "system": "https://spor.ema.europa.eu/v1/lists/220000000060",
              "code": "220000000061",
              "display": "Marketing Authorisation"
            }
          ]
        },
        "identifier": [
          {
            "system": "http://ema.europa.eu/fhir/marketingAuthorizationNumber",
            "value": "8820"
          }
        ],
        "subject": [
          {
            "reference": "MedicinalProductDefinition/MorfinMeda-10mgml-Solution-SE-BS-MedicinalProductDefinition"
          }
        ],
        "region": [
          {
            "coding": [
              {
                "code": "100000000535",
                "system": "https://spor.ema.europa.eu/v1/lists/100000000002",
                "display": "Sweden"
              }
            ]
          }
        ],
        "status": {
          "coding": [
            {
              "code": "100000072099",
              "system": "https://spor.ema.europa.eu/v1/lists/100000072049",
              "display": "Valid"
            }
          ]
        },
        "statusDate": "1973-08-31",
        "case": {
          "type": {
            "coding": [
              {
                "code": "dateOfFirstAuthorisation",
                "system": "https://ema.europa.eu/fhir/authorisationDateType",
                "display": "First Authorisation"
              }
            ]
          },
          "dateDateTime": "1973-08-31"
        },
        "holder": {
          "reference": "Organization/LOC-100001591"
        }
      }
    },
    {
      "resource": {
        "resourceType": "AdministrableProductDefinition",
        "id": "MorfinMeda-10mgml-Solution-SE-BS-AdministrableProductDefinition",
        "meta": {
          "profile": [
            "http://unicom-project.eu/fhir/StructureDefinition/PPLAdministrableProductDefinition"
          ]
        },
        "status": "active",
        "formOf": [
          {
            "reference": "MedicinalProductDefinition/MorfinMeda-10mgml-Solution-SE-BS-MedicinalProductDefinition"
          }
        ],
        "administrableDoseForm": {
          "coding": [
            {
              "code": "100000073863",
              "system": "https://spor.ema.europa.eu/v1/lists/200000000004",
              "display": "Solution for injection"
            }
          ]
        },
        "producedFrom": [
          {
            "reference": "ManufacturedItemDefinition/MorfinMeda-10mgml-Solution-SE-BS-ManufacturedItemDefinition"
          }
        ],
        "routeOfAdministration": [
          {
            "code": {
              "coding": [
                {
                  "code": "100000073633",
                  "system": "https://spor.ema.europa.eu/v1/lists/100000073345",
                  "display": "Subcutaneous use"
                },
                {
                  "code": "100000073600",
                  "system": "https://spor.ema.europa.eu/v1/lists/100000073345",
                  "display": "Intramuscular use"
                },
                {
                  "code": "100000073611",
                  "system": "https://spor.ema.europa.eu/v1/lists/100000073345",
                  "display": "Intravenous use"
                }
              ]
            }
          }
        ]
      }
    },
    {
      "resource": {
        "resourceType": "PackagedProductDefinition",
        "id": "MorfinMeda-10mgml-Solution-SE-BS-PackagedProductDefinition",
        "meta": {
          "profile": [
            "http://unicom-project.eu/fhir/StructureDefinition/PPLPackagedProductDefinition"
          ]
        },
        "identifier": [
          {
            "system": "http://ema.europa.eu/example/pcid"
          }
        ],
        "packaging": {
          "type": {
            "coding": [
              {
                "system": "https://spor.ema.europa.eu/v1/lists/100000073346",
                "code": "100000073498",
                "display": "Box"
              }
            ]
          },
          "quantity": 1
        },
        "containedItemQuantity": [
          {
            "value": 10,
            "code": "200000002164",
            "system": "http://spor.ema.europa.eu/v1/lists/200000000014",
            "unit": "Ampoule"
          }
        ],
        "packageFor": [
          {
            "reference": "MedicinalProductDefinition/MorfinMeda-10mgml-Solution-SE-BS-MedicinalProductDefinition"
          }
        ],
        "description": "Ampull, 10 x 1 ml",
        "marketingStatus": [
          {
            "country": {
              "coding": [
                {
                  "code": "100000000535",
                  "system": "https://spor.ema.europa.eu/v1/lists/100000000002",
                  "display": "Sweden"
                }
              ]
            },
            "status": {
              "coding": [
                {
                  "code": "100000072083",
                  "system": "https://spor.ema.europa.eu/v1/lists/100000072052",
                  "display": "Marketed"
                }
              ]
            }
          }
        ]
      }
    },
    {
      "resource": {
        "resourceType": "PackagedProductDefinition",
        "id": "MorfinMeda-10mgml-Solution-SE-BS-PackagedProductDefinition-02",
        "meta": {
          "profile": [
            "http://unicom-project.eu/fhir/StructureDefinition/PPLPackagedProductDefinition"
          ]
        },
        "identifier": [
          {
            "system": "http://ema.europa.eu/example/pcid"
          }
        ],
        "packaging": {
          "type": {
            "coding": [
              {
                "system": "https://spor.ema.europa.eu/v1/lists/100000073346",
                "code": "100000073498",
                "display": "Box"
              }
            ]
          },
          "quantity": 1
        },
        "containedItemQuantity": [
          {
            "value": 10,
            "code": "200000002164",
            "system": "http://spor.ema.europa.eu/v1/lists/200000000014",
            "unit": "Ampoule"
          }
        ],
        "packageFor": [
          {
            "reference": "MedicinalProductDefinition/MorfinMeda-10mgml-Solution-SE-BS-MedicinalProductDefinition"
          }
        ],
        "description": "Ampull, 10 x 10 ml",
        "marketingStatus": [
          {
            "country": {
              "coding": [
                {
                  "code": "100000000535",
                  "system": "https://spor.ema.europa.eu/v1/lists/100000000002",
                  "display": "Sweden"
                }
              ]
            },
            "status": {
              "coding": [
                {
                  "code": "100000072083",
                  "system": "https://spor.ema.europa.eu/v1/lists/100000072052",
                  "display": "Marketed"
                }
              ]
            }
          }
        ]
      }
    },
    {
      "resource": {
        "resourceType": "ManufacturedItemDefinition",
        "id": "MorfinMeda-10mgml-Solution-SE-BS-ManufacturedItemDefinition",
        "meta": {
          "profile": [
            "http://unicom-project.eu/fhir/StructureDefinition/PPLManufacturedItemDefinition"
          ]
        },
        "status": "active",
        "manufacturedDoseForm": {
          "coding": [
            {
              "code": "100000073863",
              "system": "https://spor.ema.europa.eu/v1/lists/200000000004",
              "display": "Solution for injection"
            }
          ]
        },
        "unitOfPresentation": {
          "coding": [
            {
              "code": "200000002164",
              "system": "https://spor.ema.europa.eu/v1/lists/200000000014",
              "display": "Ampoule"
            }
          ]
        }
      }
    },
    {
      "resource": {
        "resourceType": "Ingredient",
        "id": "MorfinMeda-10mgml-Solution-SE-BS-Ingredient",
        "meta": {
          "profile": [
            "http://unicom-project.eu/fhir/StructureDefinition/PPLIngredient"
          ]
        },
        "status": "active",
        "for": [
          {
            "reference": "MedicinalProductDefinition/MorfinMeda-10mgml-Solution-SE-BS-MedicinalProductDefinition"
          },
          {
            "reference": "ManufacturedItemDefinition/MorfinMeda-10mgml-Solution-SE-BS-ManufacturedItemDefinition"
          },
          {
            "reference": "AdministrableProductDefinition/MorfinMeda-10mgml-Solution-SE-BS-AdministrableProductDefinition"
          }
        ],
        "role": {
          "coding": [
            {
              "code": "100000072072",
              "system": "https://spor.ema.europa.eu/v1/lists/100000072050",
              "display": "Active"
            }
          ]
        },
        "substance": {
          "code": {
            "concept": {
              "coding": [
                {
                  "code": "100000090494",
                  "system": "https://spor.azure-api.net/sms/api/v2/SubstanceDefinition",
                  "display": "Morphine hydrochloride"
                }
              ]
            }
          },
          "strength": [
            {
              "concentrationRatio": {
                "numerator": {
                  "value": 10,
                  "code": "100000110655",
                  "system": "http://spor.ema.europa.eu/v1/lists/100000110633",
                  "unit": "milligram(s)"
                },
                "denominator": {
                  "value": 1,
                  "code": "100000110662",
                  "system": "http://spor.ema.europa.eu/v1/lists/100000110633",
                  "unit": "millilitre(s)"
                }
              },
              "referenceStrength": [
                {
                  "substance": {
                    "concept": {
                      "coding": [
                        {
                          "code": "100000091372",
                          "system": "https://spor.azure-api.net/sms/api/v2/SubstanceDefinition",
                          "display": "Morphine"
                        }
                      ]
                    }
                  },
                  "strengthRatio": {
                    "numerator": {
                      "value": 7.6,
                      "code": "100000110655",
                      "system": "https://spor.ema.europa.eu/v1/lists/100000110633",
                      "unit": "milligram(s)"
                    },
                    "denominator": {
                      "value": 1,
                      "code": "100000110662",
                      "system": "http://spor.ema.europa.eu/v1/lists/100000110633",
                      "unit": "millilitre(s)"
                    }
                  }
                }
              ]
            }
          ]
        }
      }
    }
  ]
}
