{
  "resourceType": "Bundle",
  "id": "GOFSH-GENERATED-ID-116",
  "type": "collection",
  "entry": [
    {
      "resource": {
        "resourceType": "MedicinalProductDefinition",
        "id": "ITZactavis-100mg-Cap-SE-IS-MedicinalProductDefinition",
        "meta": {
          "profile": [
            "http://unicom-project.eu/fhir/StructureDefinition/PPLMedicinalProductDefinition"
          ]
        },
        "identifier": [
          {
            "system": "http://ema.europa.eu/fhir/mpId",
            "value": "SE-100000064-00020352"
          },
          {
            "system": "http://ema.europa.eu/fhir/eurdId",
            "value": "1798"
          }
        ],
        "combinedPharmaceuticalDoseForm": {
          "coding": [
            {
              "code": "100000073375",
              "system": "https://spor.ema.europa.eu/v1/lists/200000000004",
              "display": "Capsule, hard"
            }
          ]
        },
        "domain": {
          "coding": [
            {
              "code": "100000000012",
              "system": "https://spor.ema.europa.eu/v1/lists/100000000004",
              "display": "Human use"
            }
          ]
        },
        "status": {
          "coding": [
            {
              "code": "200000005004",
              "system": "https://spor.ema.europa.eu/v1/lists/200000005003",
              "display": "Current"
            }
          ]
        },
        "indication": "Behandling av följande svampinfektioner, som verifierats genom direkmikroskopi och/eller odling, då  systembehandling anses nödvändig: Candidavaginit, oral candidiasis, pityriasis versicolor, svampinfektioner i hud och naglar. Officiella riktlinjer för användning av antimykotika bör beaktas. ",
        "legalStatusOfSupply": {
          "coding": [
            {
              "code": "100000072084",
              "system": "https://spor.ema.europa.eu/v1/lists/100000072051",
              "display": "Medicinal product subject to medical prescription"
            }
          ]
        },
        "classification": [
          {
            "coding": [
              {
                "code": "100000093533",
                "system": "https://spor.ema.europa.eu/v1/lists/100000116677",
                "display": "J02AC02"
              }
            ]
          }
        ],
        "name": [
          {
            "productName": "Itrakonazol Actavis 100 mg Kapsel, hård"
          }
        ]
      }
    },
    {
      "resource": {
        "resourceType": "RegulatedAuthorization",
        "id": "ITZactavis-100mg-Cap-SE-IS-RegulatedAuthorization",
        "meta": {
          "profile": [
            "http://unicom-project.eu/fhir/StructureDefinition/PPLRegulatedAuthorization"
          ]
        },
        "type": {
          "coding": [
            {
              "system": "https://spor.ema.europa.eu/v1/lists/220000000060",
              "code": "220000000061",
              "display": "Marketing Authorisation"
            }
          ]
        },
        "identifier": [
          {
            "system": "http://ema.europa.eu/fhir/marketingAuthorizationNumber",
            "value": "20352"
          }
        ],
        "subject": [
          {
            "reference": "MedicinalProductDefinition/ITZactavis-100mg-Cap-SE-IS-MedicinalProductDefinition"
          }
        ],
        "region": [
          {
            "coding": [
              {
                "code": "100000000535",
                "system": "https://spor.ema.europa.eu/v1/lists/100000000002",
                "display": "Sweden"
              }
            ]
          }
        ],
        "status": {
          "coding": [
            {
              "code": "100000072099",
              "system": "https://spor.ema.europa.eu/v1/lists/100000072049",
              "display": "Valid"
            }
          ]
        },
        "statusDate": "2005-07-01",
        "case": {
          "type": {
            "coding": [
              {
                "code": "dateOfFirstAuthorisation",
                "system": "https://ema.europa.eu/fhir/authorisationDateType",
                "display": "First Authorisation"
              }
            ]
          },
          "dateDateTime": "2005-07-01"
        },
        "holder": {
          "reference": "Organization/LOC-100001873"
        }
      }
    },
    {
      "resource": {
        "resourceType": "AdministrableProductDefinition",
        "id": "ITZactavis-100mg-Cap-SE-IS-AdministrableProductDefinition",
        "meta": {
          "profile": [
            "http://unicom-project.eu/fhir/StructureDefinition/PPLAdministrableProductDefinition"
          ]
        },
        "status": "active",
        "formOf": [
          {
            "reference": "MedicinalProductDefinition/ITZactavis-100mg-Cap-SE-IS-MedicinalProductDefinition"
          }
        ],
        "administrableDoseForm": {
          "coding": [
            {
              "code": "100000073375",
              "system": "https://spor.ema.europa.eu/v1/lists/200000000004",
              "display": "Capsule, hard"
            }
          ]
        },
        "producedFrom": [
          {
            "reference": "ManufacturedItemDefinition/ITZactavis-100mg-Cap-SE-IS-ManufacturedItemDefinition"
          }
        ],
        "routeOfAdministration": [
          {
            "code": {
              "coding": [
                {
                  "code": "100000073619",
                  "system": "https://spor.ema.europa.eu/v1/lists/100000073345",
                  "display": "Oral use"
                }
              ]
            }
          }
        ]
      }
    },
    {
      "resource": {
        "resourceType": "PackagedProductDefinition",
        "id": "ITZactavis-100mg-Cap-SE-IS-PackagedProductDefinition",
        "meta": {
          "profile": [
            "http://unicom-project.eu/fhir/StructureDefinition/PPLPackagedProductDefinition"
          ]
        },
        "identifier": [
          {
            "system": "http://ema.europa.eu/example/pcid"
          }
        ],
        "packaging": {
          "type": {
            "coding": [
              {
                "system": "https://spor.ema.europa.eu/v1/lists/100000073346",
                "code": "100000073498",
                "display": "Box"
              }
            ]
          },
          "quantity": 1
        },
        "containedItemQuantity": [
          {
            "value": 14,
            "code": "200000002113",
            "system": "http://spor.ema.europa.eu/v1/lists/200000000014",
            "unit": "Capsule"
          }
        ],
        "packageFor": [
          {
            "reference": "MedicinalProductDefinition/ITZactavis-100mg-Cap-SE-IS-MedicinalProductDefinition"
          }
        ],
        "description": "Blister, 28 kapslar",
        "marketingStatus": [
          {
            "country": {
              "coding": [
                {
                  "code": "100000000535",
                  "system": "https://spor.ema.europa.eu/v1/lists/100000000002",
                  "display": "Sweden"
                }
              ]
            },
            "status": {
              "coding": [
                {
                  "code": "100000072083",
                  "system": "https://spor.ema.europa.eu/v1/lists/100000072052",
                  "display": "Marketed"
                }
              ]
            }
          }
        ]
      }
    },
    {
      "resource": {
        "resourceType": "ManufacturedItemDefinition",
        "id": "ITZactavis-100mg-Cap-SE-IS-ManufacturedItemDefinition",
        "meta": {
          "profile": [
            "http://unicom-project.eu/fhir/StructureDefinition/PPLManufacturedItemDefinition"
          ]
        },
        "status": "active",
        "manufacturedDoseForm": {
          "coding": [
            {
              "code": "100000073375",
              "system": "https://spor.ema.europa.eu/v1/lists/200000000004",
              "display": "Capsule, hard"
            }
          ]
        },
        "unitOfPresentation": {
          "coding": [
            {
              "code": "200000002113",
              "system": "https://spor.ema.europa.eu/v1/lists/200000000014",
              "display": "Capsule"
            }
          ]
        }
      }
    },
    {
      "resource": {
        "resourceType": "Ingredient",
        "id": "ITZactavis-100mg-Cap-SE-IS-Ingredient",
        "meta": {
          "profile": [
            "http://unicom-project.eu/fhir/StructureDefinition/PPLIngredient"
          ]
        },
        "status": "active",
        "for": [
          {
            "reference": "MedicinalProductDefinition/ITZactavis-100mg-Cap-SE-IS-MedicinalProductDefinition"
          },
          {
            "reference": "ManufacturedItemDefinition/ITZactavis-100mg-Cap-SE-IS-ManufacturedItemDefinition"
          },
          {
            "reference": "AdministrableProductDefinition/ITZactavis-100mg-Cap-SE-IS-AdministrableProductDefinition"
          }
        ],
        "role": {
          "coding": [
            {
              "code": "100000072072",
              "system": "https://spor.ema.europa.eu/v1/lists/100000072050",
              "display": "Active"
            }
          ]
        },
        "substance": {
          "code": {
            "concept": {
              "coding": [
                {
                  "code": "100000091697",
                  "system": "https://spor.azure-api.net/sms/api/v2/SubstanceDefinition",
                  "display": "Itraconazole"
                }
              ]
            }
          },
          "strength": [
            {
              "presentationRatio": {
                "numerator": {
                  "value": 100,
                  "code": "100000110655",
                  "system": "http://spor.ema.europa.eu/v1/lists/100000110633",
                  "unit": "milligram(s)"
                },
                "denominator": {
                  "value": 1,
                  "code": "100000110756",
                  "system": "http://spor.ema.europa.eu/v1/lists/100000110633",
                  "unit": "unit(s)"
                }
              },
              "referenceStrength": [
                {
                  "substance": {
                    "concept": {
                      "coding": [
                        {
                          "code": "100000091697",
                          "system": "https://spor.azure-api.net/sms/api/v2/SubstanceDefinition",
                          "display": "Itraconazole"
                        }
                      ]
                    }
                  },
                  "strengthRatio": {
                    "numerator": {
                      "value": 100,
                      "code": "100000110655",
                      "system": "http://spor.ema.europa.eu/v1/lists/100000110633",
                      "unit": "milligram(s)"
                    },
                    "denominator": {
                      "value": 1,
                      "code": "100000110756",
                      "system": "http://spor.ema.europa.eu/v1/lists/100000110633",
                      "unit": "unit(s)"
                    }
                  }
                }
              ]
            }
          ]
        }
      }
    }
  ]
}
