{
  "resourceType": "Bundle",
  "id": "GOFSH-GENERATED-ID-218",
  "type": "collection",
  "entry": [
    {
      "resource": {
        "resourceType": "MedicinalProductDefinition",
        "id": "Tiparol50mgbrustablett-SE-PLC-MedicinalProductDef",
        "meta": {
          "profile": [
            "http://unicom-project.eu/fhir/StructureDefinition/PPLMedicinalProductDefinition"
          ]
        },
        "identifier": [
          {
            "system": "http://ema.europa.eu/fhir/mpId",
            "value": "SE-100002566-00014106"
          },
          {
            "system": "http://ema.europa.eu/fhir/eurdId",
            "value": "3002"
          }
        ],
        "combinedPharmaceuticalDoseForm": {
          "coding": [
            {
              "code": "100000073681",
              "system": "https://spor.ema.europa.eu/v1/lists/200000000004~200000000006~200000000007~200000000008",
              "display": "Effervescent tablet"
            }
          ]
        },
        "domain": {
          "coding": [
            {
              "code": "100000000012",
              "system": "https://spor.ema.europa.eu/v1/lists/100000000004",
              "display": "Human use"
            }
          ]
        },
        "status": {
          "coding": [
            {
              "code": "200000005004",
              "system": "https://spor.ema.europa.eu/v1/lists/200000005003",
              "display": "Current"
            }
          ]
        },
        "indication": "Måttlig till svår akut och kronisk smärta.",
        "legalStatusOfSupply": {
          "coding": [
            {
              "code": "100000072084",
              "system": "https://spor.ema.europa.eu/v1/lists/100000072051",
              "display": "Medicinal product subject to medical prescription"
            }
          ]
        },
        "classification": [
          {
            "coding": [
              {
                "code": "100000097261",
                "system": "https://spor.ema.europa.eu/v1/lists/100000093533",
                "display": "N02AX02"
              }
            ]
          }
        ],
        "name": [
          {
            "productName": "Tiparol 50 mg brustablett"
          }
        ]
      }
    },
    {
      "resource": {
        "resourceType": "RegulatedAuthorization",
        "id": "Tiparol50mgbrustablett-SE-PLC-RegAutho",
        "meta": {
          "profile": [
            "http://unicom-project.eu/fhir/StructureDefinition/PPLRegulatedAuthorization"
          ]
        },
        "type": {
          "coding": [
            {
              "system": "https://spor.ema.europa.eu/v1/lists/220000000060",
              "code": "220000000061",
              "display": "Marketing Authorisation"
            }
          ]
        },
        "identifier": [
          {
            "system": "http://ema.europa.eu/fhir/marketingAuthorizationNumber",
            "value": "14106"
          }
        ],
        "subject": [
          {
            "reference": "MedicinalProductDefinition/Tiparol50mgbrustablett-SE-PLC-MedicinalProductDef"
          }
        ],
        "region": [
          {
            "coding": [
              {
                "code": "100000000535",
                "system": "https://spor.ema.europa.eu/v1/lists/100000000002",
                "display": "Sweden"
              }
            ]
          }
        ],
        "status": {
          "coding": [
            {
              "code": "100000072099",
              "system": "https://spor.ema.europa.eu/v1/lists/100000072049",
              "display": "Valid"
            }
          ]
        },
        "statusDate": "1998-12-18",
        "case": {
          "type": {
            "coding": [
              {
                "code": "dateOfFirstAuthorisation",
                "system": "https://ema.europa.eu/fhir/authorisationDateType",
                "display": "First Authorisation"
              }
            ]
          },
          "dateDateTime": "1998-12-18"
        },
        "holder": {
          "reference": "Organization/LOC-100007939"
        }
      }
    },
    {
      "resource": {
        "resourceType": "AdministrableProductDefinition",
        "id": "Tiparol50mgbrustablett-SE-PLC-AdminProductDef",
        "meta": {
          "profile": [
            "http://unicom-project.eu/fhir/StructureDefinition/PPLAdministrableProductDefinition"
          ]
        },
        "status": "active",
        "formOf": [
          {
            "reference": "MedicinalProductDefinition/Tiparol50mgbrustablett-SE-PLC-MedicinalProductDef"
          }
        ],
        "administrableDoseForm": {
          "coding": [
            {
              "code": "100000073681",
              "system": "https://spor.ema.europa.eu/v1/lists/200000000004",
              "display": "Effervescent tablet"
            }
          ]
        },
        "producedFrom": [
          {
            "reference": "ManufacturedItemDefinition/Tiparol50mgbrustablett-SE-PLC-ManufacturedItemDef"
          }
        ],
        "routeOfAdministration": [
          {
            "code": {
              "coding": [
                {
                  "code": "100000073619",
                  "system": "https://spor.ema.europa.eu/v1/lists/100000073345",
                  "display": "Oral use"
                }
              ]
            }
          }
        ]
      }
    },
    {
      "resource": {
        "resourceType": "PackagedProductDefinition",
        "id": "Tiparol50mgbrustablett-SE-PLC-PackageProductDef",
        "meta": {
          "profile": [
            "http://unicom-project.eu/fhir/StructureDefinition/PPLPackagedProductDefinition"
          ]
        },
        "identifier": [
          {
            "system": "http://ema.europa.eu/example/pcid"
          }
        ],
        "packaging": {
          "type": {
            "coding": [
              {
                "system": "https://spor.ema.europa.eu/v1/lists/100000073346",
                "code": "100000073498",
                "display": "Box"
              }
            ]
          },
          "quantity": 1
        },
        "containedItemQuantity": [
          {
            "value": 60,
            "code": "200000002152",
            "system": "http://spor.ema.europa.eu/v1/lists/200000000014",
            "unit": "Tablet"
          }
        ],
        "packageFor": [
          {
            "reference": "MedicinalProductDefinition/Tiparol50mgbrustablett-SE-PLC-MedicinalProductDef"
          }
        ],
        "description": "Rör, 4 x 15 brustabletter",
        "marketingStatus": [
          {
            "country": {
              "coding": [
                {
                  "code": "100000000535",
                  "system": "https://spor.ema.europa.eu/v1/lists/100000000002",
                  "display": "Sweden"
                }
              ]
            },
            "status": {
              "coding": [
                {
                  "code": "100000072083",
                  "system": "https://spor.ema.europa.eu/v1/lists/100000072052",
                  "display": "Marketed"
                }
              ]
            }
          }
        ]
      }
    },
    {
      "resource": {
        "resourceType": "ManufacturedItemDefinition",
        "id": "Tiparol50mgbrustablett-SE-PLC-ManufacturedItemDef",
        "meta": {
          "profile": [
            "http://unicom-project.eu/fhir/StructureDefinition/PPLManufacturedItemDefinition"
          ]
        },
        "status": "active",
        "manufacturedDoseForm": {
          "coding": [
            {
              "code": "100000073681",
              "system": "https://spor.ema.europa.eu/v1/lists/200000000004",
              "display": "Effervescent tablet"
            }
          ]
        },
        "unitOfPresentation": {
          "coding": [
            {
              "code": "200000002152",
              "system": "https://spor.ema.europa.eu/v1/lists/200000000014",
              "display": "Tablet"
            }
          ]
        }
      }
    },
    {
      "resource": {
        "resourceType": "Ingredient",
        "id": "Tiparol50mgbrustablett-SE-PLC-Ingredient01",
        "meta": {
          "profile": [
            "http://unicom-project.eu/fhir/StructureDefinition/PPLIngredient"
          ]
        },
        "status": "active",
        "for": [
          {
            "reference": "MedicinalProductDefinition/Tiparol50mgbrustablett-SE-PLC-MedicinalProductDef"
          },
          {
            "reference": "ManufacturedItemDefinition/Tiparol50mgbrustablett-SE-PLC-ManufacturedItemDef"
          },
          {
            "reference": "AdministrableProductDefinition/Tiparol50mgbrustablett-SE-PLC-AdminProductDef"
          }
        ],
        "role": {
          "coding": [
            {
              "code": "100000072072",
              "system": "https://spor.ema.europa.eu/v1/lists/100000072050",
              "display": "Active"
            }
          ]
        },
        "substance": {
          "code": {
            "concept": {
              "coding": [
                {
                  "code": "100000093275",
                  "system": "https://spor.azure-api.net/sms/api/v2/SubstanceDefinition",
                  "display": "Tramadol hydrochloride"
                }
              ]
            }
          },
          "strength": [
            {
              "presentationRatio": {
                "numerator": {
                  "value": 50,
                  "code": "100000110655",
                  "system": "https://spor.ema.europa.eu/v1/lists/100000110633",
                  "unit": "milligram(s)"
                },
                "denominator": {
                  "value": 1,
                  "code": "200000002152",
                  "system": "https://spor.ema.europa.eu/v1/lists/200000000014",
                  "unit": "Tablet"
                }
              },
              "referenceStrength": [
                {
                  "substance": {
                    "concept": {
                      "coding": [
                        {
                          "code": "100000077198",
                          "system": "https://spor.azure-api.net/sms/api/v2/SubstanceDefinition",
                          "display": "Tramadol"
                        }
                      ]
                    }
                  },
                  "strengthRatio": {
                    "numerator": {
                      "value": 44,
                      "code": "100000110655",
                      "system": "https://spor.ema.europa.eu/v1/lists/200000000014",
                      "unit": "milligram(s)"
                    },
                    "denominator": {
                      "value": 1,
                      "code": "200000002152",
                      "system": "https://spor.ema.europa.eu/v1/lists/100000110633",
                      "unit": "Tablet"
                    }
                  }
                }
              ]
            }
          ]
        }
      }
    },
    {
      "resource": {
        "resourceType": "Ingredient",
        "id": "Tiparol50mgbrustablett-SE-PLC-Ingredient02",
        "meta": {
          "profile": [
            "http://unicom-project.eu/fhir/StructureDefinition/PPLIngredient"
          ]
        },
        "status": "active",
        "for": [
          {
            "reference": "MedicinalProductDefinition/Tiparol50mgbrustablett-SE-PLC-MedicinalProductDef"
          },
          {
            "reference": "ManufacturedItemDefinition/Tiparol50mgbrustablett-SE-PLC-ManufacturedItemDef"
          },
          {
            "reference": "AdministrableProductDefinition/Tiparol50mgbrustablett-SE-PLC-AdminProductDef"
          }
        ],
        "role": {
          "coding": [
            {
              "code": "100000072082",
              "system": "https://spor.ema.europa.eu/v1/lists/100000072050",
              "display": "Excipient"
            }
          ]
        },
        "substance": {
          "code": {
            "concept": {
              "coding": [
                {
                  "code": "100000139218",
                  "system": "https://spor.azure-api.net/sms/api/v2/SubstanceDefinition",
                  "display": "Aspartame"
                }
              ]
            }
          },
          "strength": [
            {
              "concentrationRatio": {
                "numerator": {
                  "value": 0,
                  "code": "100000110655",
                  "system": "http://spor.ema.europa.eu/v1/lists/100000110633",
                  "unit": "milligram(s)"
                },
                "denominator": {
                  "value": 0,
                  "code": "100000110756",
                  "system": "http://spor.ema.europa.eu/v1/lists/100000110633",
                  "unit": "unit(s)"
                }
              }
            }
          ]
        }
      }
    },
    {
      "resource": {
        "resourceType": "Ingredient",
        "id": "Tiparol50mgbrustablett-SE-PLC-Ingredient03",
        "meta": {
          "profile": [
            "http://unicom-project.eu/fhir/StructureDefinition/PPLIngredient"
          ]
        },
        "status": "active",
        "for": [
          {
            "reference": "MedicinalProductDefinition/Tiparol50mgbrustablett-SE-PLC-MedicinalProductDef"
          },
          {
            "reference": "ManufacturedItemDefinition/Tiparol50mgbrustablett-SE-PLC-ManufacturedItemDef"
          },
          {
            "reference": "AdministrableProductDefinition/Tiparol50mgbrustablett-SE-PLC-AdminProductDef"
          }
        ],
        "role": {
          "coding": [
            {
              "code": "100000072082",
              "system": "https://spor.ema.europa.eu/v1/lists/100000072050",
              "display": "Excipient"
            }
          ]
        },
        "substance": {
          "code": {
            "concept": {
              "coding": [
                {
                  "code": "100000092612",
                  "system": "https://spor.azure-api.net/sms/api/v2/SubstanceDefinition",
                  "display": "Citric acid (anhydrous)"
                }
              ]
            }
          },
          "strength": [
            {
              "concentrationRatio": {
                "numerator": {
                  "value": 0,
                  "code": "100000110655",
                  "system": "http://spor.ema.europa.eu/v1/lists/100000110633",
                  "unit": "milligram(s)"
                },
                "denominator": {
                  "value": 0,
                  "code": "100000110756",
                  "system": "http://spor.ema.europa.eu/v1/lists/100000110633",
                  "unit": "unit(s)"
                }
              }
            }
          ]
        }
      }
    },
    {
      "resource": {
        "resourceType": "Ingredient",
        "id": "Tiparol50mgbrustablett-SE-PLC-Ingredient04",
        "meta": {
          "profile": [
            "http://unicom-project.eu/fhir/StructureDefinition/PPLIngredient"
          ]
        },
        "status": "active",
        "for": [
          {
            "reference": "MedicinalProductDefinition/Tiparol50mgbrustablett-SE-PLC-MedicinalProductDef"
          },
          {
            "reference": "ManufacturedItemDefinition/Tiparol50mgbrustablett-SE-PLC-ManufacturedItemDef"
          },
          {
            "reference": "AdministrableProductDefinition/Tiparol50mgbrustablett-SE-PLC-AdminProductDef"
          }
        ],
        "role": {
          "coding": [
            {
              "code": "100000072082",
              "system": "https://spor.ema.europa.eu/v1/lists/100000072050",
              "display": "Excipient"
            }
          ]
        },
        "substance": {
          "code": {
            "concept": {
              "coding": [
                {
                  "code": "100000090171",
                  "system": "https://spor.azure-api.net/sms/api/v2/SubstanceDefinition",
                  "display": "Dimeticone"
                }
              ]
            }
          },
          "strength": [
            {
              "concentrationRatio": {
                "numerator": {
                  "value": 0,
                  "code": "100000110655",
                  "system": "http://spor.ema.europa.eu/v1/lists/100000110633",
                  "unit": "milligram(s)"
                },
                "denominator": {
                  "value": 0,
                  "code": "100000110756",
                  "system": "http://spor.ema.europa.eu/v1/lists/100000110633",
                  "unit": "unit(s)"
                }
              }
            }
          ]
        }
      }
    },
    {
      "resource": {
        "resourceType": "Ingredient",
        "id": "Tiparol50mgbrustablett-SE-PLC-Ingredient05",
        "meta": {
          "profile": [
            "http://unicom-project.eu/fhir/StructureDefinition/PPLIngredient"
          ]
        },
        "status": "active",
        "for": [
          {
            "reference": "MedicinalProductDefinition/Tiparol50mgbrustablett-SE-PLC-MedicinalProductDef"
          },
          {
            "reference": "ManufacturedItemDefinition/Tiparol50mgbrustablett-SE-PLC-ManufacturedItemDef"
          },
          {
            "reference": "AdministrableProductDefinition/Tiparol50mgbrustablett-SE-PLC-AdminProductDef"
          }
        ],
        "role": {
          "coding": [
            {
              "code": "100000072082",
              "system": "https://spor.ema.europa.eu/v1/lists/100000072050",
              "display": "Excipient"
            }
          ]
        },
        "substance": {
          "code": {
            "concept": {
              "coding": [
                {
                  "code": "100000093305",
                  "system": "https://spor.azure-api.net/sms/api/v2/SubstanceDefinition",
                  "display": "Lactose monohydrate"
                }
              ]
            }
          },
          "strength": [
            {
              "concentrationRatio": {
                "numerator": {
                  "value": 0,
                  "code": "100000110655",
                  "system": "http://spor.ema.europa.eu/v1/lists/100000110633",
                  "unit": "milligram(s)"
                },
                "denominator": {
                  "value": 0,
                  "code": "100000110756",
                  "system": "http://spor.ema.europa.eu/v1/lists/100000110633",
                  "unit": "unit(s)"
                }
              }
            }
          ]
        }
      }
    },
    {
      "resource": {
        "resourceType": "Ingredient",
        "id": "Tiparol50mgbrustablett-SE-PLC-Ingredient06",
        "meta": {
          "profile": [
            "http://unicom-project.eu/fhir/StructureDefinition/PPLIngredient"
          ]
        },
        "status": "active",
        "for": [
          {
            "reference": "MedicinalProductDefinition/Tiparol50mgbrustablett-SE-PLC-MedicinalProductDef"
          },
          {
            "reference": "ManufacturedItemDefinition/Tiparol50mgbrustablett-SE-PLC-ManufacturedItemDef"
          },
          {
            "reference": "AdministrableProductDefinition/Tiparol50mgbrustablett-SE-PLC-AdminProductDef"
          }
        ],
        "role": {
          "coding": [
            {
              "code": "100000072082",
              "system": "https://spor.ema.europa.eu/v1/lists/100000072050",
              "display": "Excipient"
            }
          ]
        },
        "substance": {
          "code": {
            "concept": {
              "coding": [
                {
                  "code": "100000115769",
                  "system": "https://spor.azure-api.net/sms/api/v2/SubstanceDefinition",
                  "display": "Macrogol"
                }
              ]
            }
          },
          "strength": [
            {
              "concentrationRatio": {
                "numerator": {
                  "value": 0,
                  "code": "100000110655",
                  "system": "http://spor.ema.europa.eu/v1/lists/100000110633",
                  "unit": "milligram(s)"
                },
                "denominator": {
                  "value": 0,
                  "code": "100000110756",
                  "system": "http://spor.ema.europa.eu/v1/lists/100000110633",
                  "unit": "unit(s)"
                }
              }
            }
          ]
        }
      }
    },
    {
      "resource": {
        "resourceType": "Ingredient",
        "id": "Tiparol50mgbrustablett-SE-PLC-Ingredient07",
        "meta": {
          "profile": [
            "http://unicom-project.eu/fhir/StructureDefinition/PPLIngredient"
          ]
        },
        "status": "active",
        "for": [
          {
            "reference": "MedicinalProductDefinition/Tiparol50mgbrustablett-SE-PLC-MedicinalProductDef"
          },
          {
            "reference": "ManufacturedItemDefinition/Tiparol50mgbrustablett-SE-PLC-ManufacturedItemDef"
          },
          {
            "reference": "AdministrableProductDefinition/Tiparol50mgbrustablett-SE-PLC-AdminProductDef"
          }
        ],
        "role": {
          "coding": [
            {
              "code": "100000072082",
              "system": "https://spor.ema.europa.eu/v1/lists/100000072050",
              "display": "Excipient"
            }
          ]
        },
        "substance": {
          "code": {
            "concept": {
              "coding": [
                {
                  "code": "100000076793",
                  "system": "https://spor.azure-api.net/sms/api/v2/SubstanceDefinition",
                  "display": "Macrogol stearate"
                }
              ]
            }
          },
          "strength": [
            {
              "concentrationRatio": {
                "numerator": {
                  "value": 0,
                  "code": "100000110655",
                  "system": "http://spor.ema.europa.eu/v1/lists/100000110633",
                  "unit": "milligram(s)"
                },
                "denominator": {
                  "value": 0,
                  "code": "100000110756",
                  "system": "http://spor.ema.europa.eu/v1/lists/100000110633",
                  "unit": "unit(s)"
                }
              }
            }
          ]
        }
      }
    },
    {
      "resource": {
        "resourceType": "Ingredient",
        "id": "Tiparol50mgbrustablett-SE-PLC-Ingredient08",
        "meta": {
          "profile": [
            "http://unicom-project.eu/fhir/StructureDefinition/PPLIngredient"
          ]
        },
        "status": "active",
        "for": [
          {
            "reference": "MedicinalProductDefinition/Tiparol50mgbrustablett-SE-PLC-MedicinalProductDef"
          },
          {
            "reference": "ManufacturedItemDefinition/Tiparol50mgbrustablett-SE-PLC-ManufacturedItemDef"
          },
          {
            "reference": "AdministrableProductDefinition/Tiparol50mgbrustablett-SE-PLC-AdminProductDef"
          }
        ],
        "role": {
          "coding": [
            {
              "code": "100000072082",
              "system": "https://spor.ema.europa.eu/v1/lists/100000072050",
              "display": "Excipient"
            }
          ]
        },
        "substance": {
          "code": {
            "concept": {
              "coding": [
                {
                  "code": "100000076148",
                  "system": "https://spor.azure-api.net/sms/api/v2/SubstanceDefinition",
                  "display": "Orange flavour"
                }
              ]
            }
          },
          "strength": [
            {
              "concentrationRatio": {
                "numerator": {
                  "value": 0,
                  "code": "100000110655",
                  "system": "http://spor.ema.europa.eu/v1/lists/100000110633",
                  "unit": "milligram(s)"
                },
                "denominator": {
                  "value": 0,
                  "code": "100000110756",
                  "system": "http://spor.ema.europa.eu/v1/lists/100000110633",
                  "unit": "unit(s)"
                }
              }
            }
          ]
        }
      }
    },
    {
      "resource": {
        "resourceType": "Ingredient",
        "id": "Tiparol50mgbrustablett-SE-PLC-Ingredient09",
        "meta": {
          "profile": [
            "http://unicom-project.eu/fhir/StructureDefinition/PPLIngredient"
          ]
        },
        "status": "active",
        "for": [
          {
            "reference": "MedicinalProductDefinition/Tiparol50mgbrustablett-SE-PLC-MedicinalProductDef"
          },
          {
            "reference": "ManufacturedItemDefinition/Tiparol50mgbrustablett-SE-PLC-ManufacturedItemDef"
          },
          {
            "reference": "AdministrableProductDefinition/Tiparol50mgbrustablett-SE-PLC-AdminProductDef"
          }
        ],
        "role": {
          "coding": [
            {
              "code": "100000072082",
              "system": "https://spor.ema.europa.eu/v1/lists/100000072050",
              "display": "Excipient"
            }
          ]
        },
        "substance": {
          "code": {
            "concept": {
              "coding": [
                {
                  "code": "100000092381",
                  "system": "https://spor.azure-api.net/sms/api/v2/SubstanceDefinition",
                  "display": "Povidone"
                }
              ]
            }
          },
          "strength": [
            {
              "concentrationRatio": {
                "numerator": {
                  "value": 0,
                  "code": "100000110655",
                  "system": "http://spor.ema.europa.eu/v1/lists/100000110633",
                  "unit": "milligram(s)"
                },
                "denominator": {
                  "value": 0,
                  "code": "100000110756",
                  "system": "http://spor.ema.europa.eu/v1/lists/100000110633",
                  "unit": "unit(s)"
                }
              }
            }
          ]
        }
      }
    },
    {
      "resource": {
        "resourceType": "Ingredient",
        "id": "Tiparol50mgbrustablett-SE-PLC-Ingredient10",
        "meta": {
          "profile": [
            "http://unicom-project.eu/fhir/StructureDefinition/PPLIngredient"
          ]
        },
        "status": "active",
        "for": [
          {
            "reference": "MedicinalProductDefinition/Tiparol50mgbrustablett-SE-PLC-MedicinalProductDef"
          },
          {
            "reference": "ManufacturedItemDefinition/Tiparol50mgbrustablett-SE-PLC-ManufacturedItemDef"
          },
          {
            "reference": "AdministrableProductDefinition/Tiparol50mgbrustablett-SE-PLC-AdminProductDef"
          }
        ],
        "role": {
          "coding": [
            {
              "code": "100000072082",
              "system": "https://spor.ema.europa.eu/v1/lists/100000072050",
              "display": "Excipient"
            }
          ]
        },
        "substance": {
          "code": {
            "concept": {
              "coding": [
                {
                  "code": "100000092242",
                  "system": "https://spor.azure-api.net/sms/api/v2/SubstanceDefinition",
                  "display": "Silica, colloidal anhydrous"
                }
              ]
            }
          },
          "strength": [
            {
              "concentrationRatio": {
                "numerator": {
                  "value": 0,
                  "code": "100000110655",
                  "system": "http://spor.ema.europa.eu/v1/lists/100000110633",
                  "unit": "milligram(s)"
                },
                "denominator": {
                  "value": 0,
                  "code": "100000110756",
                  "system": "http://spor.ema.europa.eu/v1/lists/100000110633",
                  "unit": "unit(s)"
                }
              }
            }
          ]
        }
      }
    },
    {
      "resource": {
        "resourceType": "Ingredient",
        "id": "Tiparol50mgbrustablett-SE-PLC-Ingredient11",
        "meta": {
          "profile": [
            "http://unicom-project.eu/fhir/StructureDefinition/PPLIngredient"
          ]
        },
        "status": "active",
        "for": [
          {
            "reference": "MedicinalProductDefinition/Tiparol50mgbrustablett-SE-PLC-MedicinalProductDef"
          },
          {
            "reference": "ManufacturedItemDefinition/Tiparol50mgbrustablett-SE-PLC-ManufacturedItemDef"
          },
          {
            "reference": "AdministrableProductDefinition/Tiparol50mgbrustablett-SE-PLC-AdminProductDef"
          }
        ],
        "role": {
          "coding": [
            {
              "code": "100000072082",
              "system": "https://spor.ema.europa.eu/v1/lists/100000072050",
              "display": "Excipient"
            }
          ]
        },
        "substance": {
          "code": {
            "concept": {
              "coding": [
                {
                  "code": "100000078105",
                  "system": "https://spor.azure-api.net/sms/api/v2/SubstanceDefinition",
                  "display": "Sodium carbonate anhydrous"
                }
              ]
            }
          },
          "strength": [
            {
              "concentrationRatio": {
                "numerator": {
                  "value": 0,
                  "code": "100000110655",
                  "system": "http://spor.ema.europa.eu/v1/lists/100000110633",
                  "unit": "milligram(s)"
                },
                "denominator": {
                  "value": 0,
                  "code": "100000110756",
                  "system": "http://spor.ema.europa.eu/v1/lists/100000110633",
                  "unit": "unit(s)"
                }
              }
            }
          ]
        }
      }
    },
    {
      "resource": {
        "resourceType": "Ingredient",
        "id": "Tiparol50mgbrustablett-SE-PLC-Ingredient12",
        "meta": {
          "profile": [
            "http://unicom-project.eu/fhir/StructureDefinition/PPLIngredient"
          ]
        },
        "status": "active",
        "for": [
          {
            "reference": "MedicinalProductDefinition/Tiparol50mgbrustablett-SE-PLC-MedicinalProductDef"
          },
          {
            "reference": "ManufacturedItemDefinition/Tiparol50mgbrustablett-SE-PLC-ManufacturedItemDef"
          },
          {
            "reference": "AdministrableProductDefinition/Tiparol50mgbrustablett-SE-PLC-AdminProductDef"
          }
        ],
        "role": {
          "coding": [
            {
              "code": "100000072082",
              "system": "https://spor.ema.europa.eu/v1/lists/100000072050",
              "display": "Excipient"
            }
          ]
        },
        "substance": {
          "code": {
            "concept": {
              "coding": [
                {
                  "code": "100000083527",
                  "system": "https://spor.azure-api.net/sms/api/v2/SubstanceDefinition",
                  "display": "Sodium cyclamate"
                }
              ]
            }
          },
          "strength": [
            {
              "concentrationRatio": {
                "numerator": {
                  "value": 0,
                  "code": "100000110655",
                  "system": "http://spor.ema.europa.eu/v1/lists/100000110633",
                  "unit": "milligram(s)"
                },
                "denominator": {
                  "value": 0,
                  "code": "100000110756",
                  "system": "http://spor.ema.europa.eu/v1/lists/100000110633",
                  "unit": "unit(s)"
                }
              }
            }
          ]
        }
      }
    },
    {
      "resource": {
        "resourceType": "Ingredient",
        "id": "Tiparol50mgbrustablett-SE-PLC-Ingredient13",
        "meta": {
          "profile": [
            "http://unicom-project.eu/fhir/StructureDefinition/PPLIngredient"
          ]
        },
        "status": "active",
        "for": [
          {
            "reference": "MedicinalProductDefinition/Tiparol50mgbrustablett-SE-PLC-MedicinalProductDef"
          },
          {
            "reference": "ManufacturedItemDefinition/Tiparol50mgbrustablett-SE-PLC-ManufacturedItemDef"
          },
          {
            "reference": "AdministrableProductDefinition/Tiparol50mgbrustablett-SE-PLC-AdminProductDef"
          }
        ],
        "role": {
          "coding": [
            {
              "code": "100000072082",
              "system": "https://spor.ema.europa.eu/v1/lists/100000072050",
              "display": "Excipient"
            }
          ]
        },
        "substance": {
          "code": {
            "concept": {
              "coding": [
                {
                  "code": "100000079337",
                  "system": "https://spor.azure-api.net/sms/api/v2/SubstanceDefinition",
                  "display": "Sodium hydrogen carbonate"
                }
              ]
            }
          },
          "strength": [
            {
              "concentrationRatio": {
                "numerator": {
                  "value": 0,
                  "code": "100000110655",
                  "system": "http://spor.ema.europa.eu/v1/lists/100000110633",
                  "unit": "milligram(s)"
                },
                "denominator": {
                  "value": 0,
                  "code": "100000110756",
                  "system": "http://spor.ema.europa.eu/v1/lists/100000110633",
                  "unit": "unit(s)"
                }
              }
            }
          ]
        }
      }
    },
    {
      "resource": {
        "resourceType": "Ingredient",
        "id": "Tiparol50mgbrustablett-SE-PLC-Ingredient14",
        "meta": {
          "profile": [
            "http://unicom-project.eu/fhir/StructureDefinition/PPLIngredient"
          ]
        },
        "status": "active",
        "for": [
          {
            "reference": "MedicinalProductDefinition/Tiparol50mgbrustablett-SE-PLC-MedicinalProductDef"
          },
          {
            "reference": "ManufacturedItemDefinition/Tiparol50mgbrustablett-SE-PLC-ManufacturedItemDef"
          },
          {
            "reference": "AdministrableProductDefinition/Tiparol50mgbrustablett-SE-PLC-AdminProductDef"
          }
        ],
        "role": {
          "coding": [
            {
              "code": "100000072082",
              "system": "https://spor.ema.europa.eu/v1/lists/100000072050",
              "display": "Excipient"
            }
          ]
        },
        "substance": {
          "code": {
            "concept": {
              "coding": [
                {
                  "code": "100000078144",
                  "system": "https://spor.azure-api.net/sms/api/v2/SubstanceDefinition",
                  "display": "Sodium sulfate anhydrous"
                }
              ]
            }
          },
          "strength": [
            {
              "concentrationRatio": {
                "numerator": {
                  "value": 0,
                  "code": "100000110655",
                  "system": "http://spor.ema.europa.eu/v1/lists/100000110633",
                  "unit": "milligram(s)"
                },
                "denominator": {
                  "value": 0,
                  "code": "100000110756",
                  "system": "http://spor.ema.europa.eu/v1/lists/100000110633",
                  "unit": "unit(s)"
                }
              }
            }
          ]
        }
      }
    },
    {
      "resource": {
        "resourceType": "Ingredient",
        "id": "Tiparol50mgbrustablett-SE-PLC-Ingredient15",
        "meta": {
          "profile": [
            "http://unicom-project.eu/fhir/StructureDefinition/PPLIngredient"
          ]
        },
        "status": "active",
        "for": [
          {
            "reference": "MedicinalProductDefinition/Tiparol50mgbrustablett-SE-PLC-MedicinalProductDef"
          },
          {
            "reference": "ManufacturedItemDefinition/Tiparol50mgbrustablett-SE-PLC-ManufacturedItemDef"
          },
          {
            "reference": "AdministrableProductDefinition/Tiparol50mgbrustablett-SE-PLC-AdminProductDef"
          }
        ],
        "role": {
          "coding": [
            {
              "code": "100000072082",
              "system": "https://spor.ema.europa.eu/v1/lists/100000072050",
              "display": "Excipient"
            }
          ]
        },
        "substance": {
          "code": {
            "concept": {
              "coding": [
                {
                  "code": "100000077796",
                  "system": "https://spor.azure-api.net/sms/api/v2/SubstanceDefinition",
                  "display": "Sorbic acid"
                }
              ]
            }
          },
          "strength": [
            {
              "concentrationRatio": {
                "numerator": {
                  "value": 0,
                  "code": "100000110655",
                  "system": "http://spor.ema.europa.eu/v1/lists/100000110633",
                  "unit": "milligram(s)"
                },
                "denominator": {
                  "value": 0,
                  "code": "100000110756",
                  "system": "http://spor.ema.europa.eu/v1/lists/100000110633",
                  "unit": "unit(s)"
                }
              }
            }
          ]
        }
      }
    }
  ]
}
