{
  "resourceType": "Bundle",
  "id": "GOFSH-GENERATED-ID-35",
  "type": "collection",
  "entry": [
    {
      "resource": {
        "resourceType": "MedicinalProductDefinition",
        "id": "BuprenorSTADA-5h-Transderm-SE-BS-MedicinalProductDefinition",
        "meta": {
          "profile": [
            "http://unicom-project.eu/fhir/StructureDefinition/PPLMedicinalProductDefinition"
          ]
        },
        "identifier": [
          {
            "system": "http://ema.europa.eu/fhir/mpId",
            "value": "SE-100000843-00052809"
          },
          {
            "system": "http://ema.europa.eu/fhir/eurdId",
            "value": "459"
          }
        ],
        "name": [
          {
            "usage": [
              {
                "country": {
                  "coding": [
                    {
                      "system": "https://spor.ema.europa.eu/v1/lists/100000000002",
                      "display": "Sweden"
                    }
                  ]
                },
                "language": {
                  "coding": [
                    {
                      "code": "sv",
                      "system": "urn:ietf:bcp:47",
                      "display": "Swedish"
                    }
                  ]
                }
              }
            ],
            "productName": "Buprenorphine STADA 5 mikrogram/timme depotplåster"
          }
        ],
        "combinedPharmaceuticalDoseForm": {
          "coding": [
            {
              "code": "100000073741",
              "system": "https://spor.ema.europa.eu/v1/lists/200000000004~200000000006~200000000007~200000000008",
              "display": "Transdermal patch"
            }
          ]
        },
        "domain": {
          "coding": [
            {
              "code": "100000000012",
              "system": "https://spor.ema.europa.eu/v1/lists/100000000004",
              "display": "Human use"
            }
          ]
        },
        "status": {
          "coding": [
            {
              "code": "200000005004",
              "system": "https://spor.ema.europa.eu/v1/lists/200000005003",
              "display": "Current"
            }
          ]
        },
        "indication": "Behandling av icke maligna smärtor av måttlig intensitet när en opiod krävs för att uppnå tillräcklig smärtlindring. Buprenorphine Stada är inte lämpligt för behandling av akuta smärttillstånd. Buprenorphine Stada är avsett för vuxna.",
        "legalStatusOfSupply": {
          "coding": [
            {
              "code": "100000072085",
              "system": "https://spor.ema.europa.eu/v1/lists/100000072051",
              "display": "Medicinal product subject to special medical prescription"
            }
          ]
        },
        "classification": [
          {
            "coding": [
              {
                "code": "100000097250",
                "system": "https://spor.ema.europa.eu/v1/lists/100000093533",
                "display": "N02AE01"
              }
            ]
          }
        ]
      }
    },
    {
      "resource": {
        "resourceType": "RegulatedAuthorization",
        "id": "BuprenorSTADA-5h-Transderm-SE-BS-RegulatedAuthorization",
        "meta": {
          "profile": [
            "http://unicom-project.eu/fhir/StructureDefinition/PPLRegulatedAuthorization"
          ]
        },
        "type": {
          "coding": [
            {
              "system": "https://spor.ema.europa.eu/v1/lists/220000000060",
              "code": "220000000061",
              "display": "Marketing Authorisation"
            }
          ]
        },
        "identifier": [
          {
            "system": "http://ema.europa.eu/fhir/marketingAuthorizationNumber",
            "value": "52809"
          }
        ],
        "subject": [
          {
            "reference": "MedicinalProductDefinition/BuprenorSTADA-5h-Transderm-SE-BS-MedicinalProductDefinition"
          }
        ],
        "region": [
          {
            "coding": [
              {
                "code": "100000000535",
                "system": "https://spor.ema.europa.eu/v1/lists/100000000002",
                "display": "Sweden"
              }
            ]
          }
        ],
        "status": {
          "coding": [
            {
              "code": "100000072099",
              "system": "https://spor.ema.europa.eu/v1/lists/100000072049",
              "display": "Valid"
            }
          ]
        },
        "statusDate": "2016-06-30",
        "case": {
          "type": {
            "coding": [
              {
                "code": "dateOfFirstAuthorisation",
                "system": "https://ema.europa.eu/fhir/authorisationDateType",
                "display": "First Authorisation"
              }
            ]
          },
          "dateDateTime": "2016-06-30"
        },
        "holder": {
          "reference": "Organization/LOC-100001022"
        }
      }
    },
    {
      "resource": {
        "resourceType": "AdministrableProductDefinition",
        "id": "BuprenorSTADA-5h-Transderm-SE-BS-AdministrableProductDef",
        "meta": {
          "profile": [
            "http://unicom-project.eu/fhir/StructureDefinition/PPLAdministrableProductDefinition"
          ]
        },
        "status": "active",
        "formOf": [
          {
            "reference": "MedicinalProductDefinition/BuprenorSTADA-5h-Transderm-SE-BS-MedicinalProductDefinition"
          }
        ],
        "administrableDoseForm": {
          "coding": [
            {
              "code": "100000073741",
              "system": "https://spor.ema.europa.eu/v1/lists/200000000004",
              "display": "Transdermal patch"
            }
          ]
        },
        "producedFrom": [
          {
            "reference": "ManufacturedItemDefinition/BuprenorSTADA-5h-Transderm-SE-BS-ManufacturedItemDefinition"
          }
        ],
        "routeOfAdministration": [
          {
            "code": {
              "coding": [
                {
                  "code": "100000073637",
                  "system": "https://spor.ema.europa.eu/v1/lists/100000073345",
                  "display": "Transdermal use"
                }
              ]
            }
          }
        ]
      }
    },
    {
      "resource": {
        "resourceType": "PackagedProductDefinition",
        "id": "BuprenorSTADA-5h-Transderm-SE-BS-PackagedProductDefinition",
        "meta": {
          "profile": [
            "http://unicom-project.eu/fhir/StructureDefinition/PPLPackagedProductDefinition"
          ]
        },
        "identifier": [
          {
            "system": "http://ema.europa.eu/example/pcid"
          }
        ],
        "packaging": {
          "type": {
            "coding": [
              {
                "system": "https://spor.ema.europa.eu/v1/lists/100000073346",
                "code": "100000073498",
                "display": "Box"
              }
            ]
          },
          "quantity": 1
        },
        "containedItemQuantity": [
          {
            "value": 12,
            "code": "200000002134",
            "system": "http://spor.ema.europa.eu/v1/lists/200000000014",
            "unit": "Patch"
          }
        ],
        "packageFor": [
          {
            "reference": "MedicinalProductDefinition/BuprenorSTADA-5h-Transderm-SE-BS-MedicinalProductDefinition"
          }
        ],
        "description": "Påse, 12 x 1 plåster",
        "marketingStatus": [
          {
            "country": {
              "coding": [
                {
                  "code": "100000000535",
                  "system": "https://spor.ema.europa.eu/v1/lists/100000000002",
                  "display": "Sweden"
                }
              ]
            },
            "status": {
              "coding": [
                {
                  "code": "100000072083",
                  "system": "https://spor.ema.europa.eu/v1/lists/100000072052",
                  "display": "Marketed"
                }
              ]
            }
          }
        ]
      }
    },
    {
      "resource": {
        "resourceType": "PackagedProductDefinition",
        "id": "BuprenorSTADA-5h-Transderm-SE-BS-PackagedProductDefinition-02",
        "meta": {
          "profile": [
            "http://unicom-project.eu/fhir/StructureDefinition/PPLPackagedProductDefinition"
          ]
        },
        "identifier": [
          {
            "system": "http://ema.europa.eu/example/pcid"
          }
        ],
        "packaging": {
          "type": {
            "coding": [
              {
                "system": "https://spor.ema.europa.eu/v1/lists/100000073346",
                "code": "100000073498",
                "display": "Box"
              }
            ]
          },
          "quantity": 1
        },
        "containedItemQuantity": [
          {
            "value": 4,
            "code": "200000002134",
            "system": "http://spor.ema.europa.eu/v1/lists/200000000014",
            "unit": "Patch"
          }
        ],
        "packageFor": [
          {
            "reference": "MedicinalProductDefinition/BuprenorSTADA-5h-Transderm-SE-BS-MedicinalProductDefinition"
          }
        ],
        "description": "Påse, 4 x 1 plåster",
        "marketingStatus": [
          {
            "country": {
              "coding": [
                {
                  "code": "100000000535",
                  "system": "https://spor.ema.europa.eu/v1/lists/100000000002",
                  "display": "Sweden"
                }
              ]
            },
            "status": {
              "coding": [
                {
                  "code": "100000072083",
                  "system": "https://spor.ema.europa.eu/v1/lists/100000072052",
                  "display": "Marketed"
                }
              ]
            }
          }
        ]
      }
    },
    {
      "resource": {
        "resourceType": "ManufacturedItemDefinition",
        "id": "BuprenorSTADA-5h-Transderm-SE-BS-ManufacturedItemDefinition",
        "meta": {
          "profile": [
            "http://unicom-project.eu/fhir/StructureDefinition/PPLManufacturedItemDefinition"
          ]
        },
        "status": "active",
        "manufacturedDoseForm": {
          "coding": [
            {
              "code": "100000073741",
              "system": "https://spor.ema.europa.eu/v1/lists/200000000004",
              "display": "Transdermal patch"
            }
          ]
        },
        "unitOfPresentation": {
          "coding": [
            {
              "code": "200000002134",
              "system": "https://spor.ema.europa.eu/v1/lists/200000000014",
              "display": "Patch"
            }
          ]
        }
      }
    },
    {
      "resource": {
        "resourceType": "Ingredient",
        "id": "BuprenorSTADA-5h-Transderm-SE-BS-Ingredient",
        "meta": {
          "profile": [
            "http://unicom-project.eu/fhir/StructureDefinition/PPLIngredient"
          ]
        },
        "status": "active",
        "for": [
          {
            "reference": "MedicinalProductDefinition/BuprenorSTADA-5h-Transderm-SE-BS-MedicinalProductDefinition"
          },
          {
            "reference": "ManufacturedItemDefinition/BuprenorSTADA-5h-Transderm-SE-BS-ManufacturedItemDefinition"
          },
          {
            "reference": "AdministrableProductDef/BuprenorSTADA-5h-Transderm-SE-BS-AdministrableProductDef"
          }
        ],
        "role": {
          "coding": [
            {
              "code": "100000072072",
              "system": "https://spor.ema.europa.eu/v1/lists/100000072050",
              "display": "Active"
            }
          ]
        },
        "substance": {
          "code": {
            "concept": {
              "coding": [
                {
                  "code": "100000085263",
                  "system": "https://spor.azure-api.net/sms/api/v2/SubstanceDefinition",
                  "display": "Buprenorphine"
                }
              ]
            }
          },
          "strength": [
            {
              "presentationRatio": {
                "numerator": {
                  "value": 5,
                  "code": "100000166092",
                  "system": "http://spor.ema.europa.eu/v1/lists/100000110633",
                  "unit": "microgram(s)/hour"
                },
                "denominator": {
                  "value": 1,
                  "code": "200000002134",
                  "system": "http://spor.ema.europa.eu/v1/lists/200000000014",
                  "unit": "patch"
                }
              },
              "referenceStrength": [
                {
                  "substance": {
                    "concept": {
                      "coding": [
                        {
                          "code": "100000085263",
                          "system": "https://spor.azure-api.net/sms/api/v2/SubstanceDefinition",
                          "display": "Buprenorphine"
                        }
                      ]
                    }
                  },
                  "strengthRatio": {
                    "numerator": {
                      "value": 5,
                      "code": "100000166092",
                      "system": "https://spor.ema.europa.eu/v1/lists/100000110633",
                      "unit": "microgram(s)/hour"
                    },
                    "denominator": {
                      "value": 1,
                      "code": "200000002134",
                      "system": "http://spor.ema.europa.eu/v1/lists/200000000014",
                      "unit": "patch"
                    }
                  }
                }
              ]
            }
          ]
        }
      }
    }
  ]
}
