{
  "resourceType": "Bundle",
  "id": "GOFSH-GENERATED-ID-3",
  "type": "collection",
  "entry": [
    {
      "fullUrl": "urn:uuid:6ee137ce-e761-43d0-a538-fc18214b518b",
      "resource": {
        "resourceType": "MedicinalProductDefinition",
        "id": "Alburex-50g-L-Solution-SE-AJ-MedicinalProductDefinition",
        "meta": {
          "profile": [
            "http://unicom-project.eu/fhir/StructureDefinition/PPLMedicinalProductDefinition"
          ]
        },
        "identifier": [
          {
            "system": "http://ema.europa.eu/fhir/mpId",
            "value": "SE-100000398-00050242"
          },
          {
            "system": "http://ema.europa.eu/fhir/eurdId",
            "value": "10836"
          }
        ],
        "name": [
          {
            "usage": [
              {
                "country": {
                  "coding": [
                    {
                      "system": "https://spor.ema.europa.eu/v1/lists/100000000002",
                      "display": "Sweden"
                    }
                  ]
                },
                "language": {
                  "coding": [
                    {
                      "code": "sv",
                      "system": "urn:ietf:bcp:47",
                      "display": "Swedish"
                    }
                  ]
                }
              }
            ],
            "productName": "Alburex 50 g/l infusionsvätska, lösning"
          }
        ],
        "combinedPharmaceuticalDoseForm": {
          "coding": [
            {
              "code": "100000073870",
              "system": "https://spor.ema.europa.eu/v1/lists/200000000004",
              "display": "solution for infusion"
            }
          ]
        },
        "domain": {
          "coding": [
            {
              "code": "100000000012",
              "system": "https://spor.ema.europa.eu/v1/lists/100000000004",
              "display": "Human use"
            }
          ]
        },
        "status": {
          "coding": [
            {
              "code": "200000005004",
              "system": "https://spor.ema.europa.eu/v1/lists/200000005003",
              "display": "Current"
            }
          ]
        },
        "indication": "Återställande och upprätthållande av cirkulerande blodvolym vid volymbrist och när användning av en kolloid är lämpligt. Val av albumin istället för en artificiell kolloid kan göras med hänsyn till patientens kliniska tillstånd och aktuella behandlingsrekommendationer.",
        "legalStatusOfSupply": {
          "coding": [
            {
              "code": "100000072084",
              "system": "https://spor.ema.europa.eu/v1/lists/100000072051",
              "display": "Medicinal product subject to medical prescription"
            }
          ]
        },
        "classification": [
          {
            "coding": [
              {
                "code": "100000094427",
                "system": "https://spor.ema.europa.eu/v1/lists/100000093533",
                "display": "B05AA01"
              }
            ]
          }
        ]
      }
    },
    {
      "fullUrl": "urn:uuid:55d42830-dee1-48dd-8fa5-a164be420d34",
      "resource": {
        "resourceType": "RegulatedAuthorization",
        "id": "Alburex-50g-L-Solution-SE-AJ-RegulatedAuthorization",
        "meta": {
          "profile": [
            "http://unicom-project.eu/fhir/StructureDefinition/PPLRegulatedAuthorization"
          ]
        },
        "type": {
          "coding": [
            {
              "system": "https://spor.ema.europa.eu/v1/lists/220000000060",
              "code": "220000000061",
              "display": "Marketing Authorisation"
            }
          ]
        },
        "identifier": [
          {
            "system": "http://ema.europa.eu/fhir/marketingAuthorizationNumber",
            "value": "50242"
          }
        ],
        "subject": [
          {
            "reference": "MedicinalProductDefinition/Alburex-50g-L-Solution-SE-AJ-MedicinalProductDefinition"
          }
        ],
        "region": [
          {
            "coding": [
              {
                "code": "100000000535",
                "system": "https://spor.ema.europa.eu/v1/lists/100000000002",
                "display": "Sweden"
              }
            ]
          }
        ],
        "status": {
          "coding": [
            {
              "code": "100000072099",
              "system": "https://spor.ema.europa.eu/v1/lists/100000072049",
              "display": "Valid"
            }
          ]
        },
        "statusDate": "2014-03-28",
        "case": {
          "type": {
            "coding": [
              {
                "code": "dateOfFirstAuthorisation",
                "system": "https://ema.europa.eu/fhir/authorisationDateType",
                "display": "First Authorisation"
              }
            ]
          },
          "dateDateTime": "2014-03-28"
        },
        "holder": {
          "reference": "Organization/LOC-100004673"
        }
      }
    },
    {
      "fullUrl": "urn:uuid:8a6162a6-0ac1-4774-9061-796604babc72",
      "resource": {
        "resourceType": "AdministrableProductDefinition",
        "id": "Alburex-50g-L-Solution-SE-AJ-AdministrableProductDefinition",
        "meta": {
          "profile": [
            "http://unicom-project.eu/fhir/StructureDefinition/PPLAdministrableProductDefinition"
          ]
        },
        "status": "active",
        "formOf": [
          {
            "reference": "MedicinalProductDefinition/Alburex-50g-L-Solution-SE-AJ-MedicinalProductDefinition"
          }
        ],
        "administrableDoseForm": {
          "coding": [
            {
              "code": "100000073870",
              "system": "https://spor.ema.europa.eu/v1/lists/200000000004",
              "display": "solution for infusion"
            }
          ]
        },
        "producedFrom": [
          {
            "reference": "ManufacturedItemDefinition/Alburex-50g-L-Solution-SE-AJ-ManufacturedItemDefinition01"
          },
          {
            "reference": "ManufacturedItemDefinition/Alburex-50g-L-Solution-SE-AJ-ManufacturedItemDefinition02"
          }
        ],
        "routeOfAdministration": [
          {
            "code": {
              "coding": [
                {
                  "code": "100000073611",
                  "system": "https://spor.ema.europa.eu/v1/lists/100000073345",
                  "display": "Intravenous use"
                }
              ]
            }
          }
        ]
      }
    },
    {
      "fullUrl": "urn:uuid:532b1a24-9fad-41c6-9ed6-1428ebc2b620",
      "resource": {
        "resourceType": "PackagedProductDefinition",
        "id": "Alburex-50g-L-Solution-SE-AJ-PackagedProductDefinition01",
        "meta": {
          "profile": [
            "http://unicom-project.eu/fhir/StructureDefinition/PPLPackagedProductDefinition"
          ]
        },
        "identifier": [
          {
            "system": "http://ema.europa.eu/example/pcid"
          }
        ],
        "packaging": {
          "type": {
            "coding": [
              {
                "system": "https://spor.ema.europa.eu/v1/lists/100000073346",
                "code": "100000073498",
                "display": "Box"
              }
            ]
          },
          "quantity": 1
        },
        "containedItemQuantity": [
          {
            "value": 1,
            "code": "200000002158",
            "system": "http://spor.ema.europa.eu/v1/lists/200000000014",
            "unit": "Vial"
          }
        ],
        "packageFor": [
          {
            "reference": "MedicinalProductDefinition/Alburex-50g-L-Solution-SE-AJ-MedicinalProductDefinition"
          }
        ],
        "description": "injektionsflaska, 250 ml",
        "marketingStatus": [
          {
            "country": {
              "coding": [
                {
                  "code": "100000000535",
                  "system": "https://spor.ema.europa.eu/v1/lists/100000000002",
                  "display": "Sweden"
                }
              ]
            },
            "status": {
              "coding": [
                {
                  "code": "100000072083",
                  "system": "https://spor.ema.europa.eu/v1/lists/100000072052",
                  "display": "Marketed"
                }
              ]
            }
          }
        ]
      }
    },
    {
      "fullUrl": "urn:uuid:09cd9f0f-7ed1-4036-aadb-4c32d368fe45",
      "resource": {
        "resourceType": "PackagedProductDefinition",
        "id": "Alburex-50g-L-Solution-SE-AJ-PackagedProductDefinition02",
        "meta": {
          "profile": [
            "http://unicom-project.eu/fhir/StructureDefinition/PPLPackagedProductDefinition"
          ]
        },
        "identifier": [
          {
            "system": "http://ema.europa.eu/example/pcid"
          }
        ],
        "packaging": {
          "type": {
            "coding": [
              {
                "system": "https://spor.ema.europa.eu/v1/lists/100000073346",
                "code": "100000073498",
                "display": "Box"
              }
            ]
          },
          "quantity": 1
        },
        "containedItemQuantity": [
          {
            "value": 1,
            "code": "200000002158",
            "system": "http://spor.ema.europa.eu/v1/lists/200000000014",
            "unit": "Vial"
          }
        ],
        "packageFor": [
          {
            "reference": "MedicinalProductDefinition/Alburex-50g-L-Solution-SE-AJ-MedicinalProductDefinition"
          }
        ],
        "description": "injektionsflaska, 500 ml",
        "marketingStatus": [
          {
            "country": {
              "coding": [
                {
                  "code": "100000000535",
                  "system": "https://spor.ema.europa.eu/v1/lists/100000000002",
                  "display": "Sweden"
                }
              ]
            },
            "status": {
              "coding": [
                {
                  "code": "100000072083",
                  "system": "https://spor.ema.europa.eu/v1/lists/100000072052",
                  "display": "Marketed"
                }
              ]
            }
          }
        ]
      }
    },
    {
      "fullUrl": "urn:uuid:e4695861-3bcf-411b-b57e-0585a96ebacd",
      "resource": {
        "resourceType": "ManufacturedItemDefinition",
        "id": "Alburex-50g-L-Solution-SE-AJ-ManufacturedItemDefinition01",
        "meta": {
          "profile": [
            "http://unicom-project.eu/fhir/StructureDefinition/PPLManufacturedItemDefinition"
          ]
        },
        "status": "active",
        "manufacturedDoseForm": {
          "coding": [
            {
              "code": "100000073870",
              "system": "https://spor.ema.europa.eu/v1/lists/200000000004",
              "display": "Solution for infusion"
            }
          ]
        },
        "unitOfPresentation": {
          "coding": [
            {
              "code": "200000002158",
              "system": "https://spor.ema.europa.eu/v1/lists/200000000014",
              "display": "Vial"
            }
          ]
        }
      }
    },
    {
      "fullUrl": "urn:uuid:8cf29912-91d0-4454-ae9c-137bfd414b34",
      "resource": {
        "resourceType": "ManufacturedItemDefinition",
        "id": "Alburex-50g-L-Solution-SE-AJ-ManufacturedItemDefinition02",
        "meta": {
          "profile": [
            "http://unicom-project.eu/fhir/StructureDefinition/PPLManufacturedItemDefinition"
          ]
        },
        "status": "active",
        "manufacturedDoseForm": {
          "coding": [
            {
              "code": "100000073870",
              "system": "https://spor.ema.europa.eu/v1/lists/200000000004",
              "display": "Solution for infusion"
            }
          ]
        },
        "unitOfPresentation": {
          "coding": [
            {
              "code": "200000002158",
              "system": "https://spor.ema.europa.eu/v1/lists/200000000014",
              "display": "Vial"
            }
          ]
        }
      }
    },
    {
      "fullUrl": "urn:uuid:29e944f8-ff1c-430c-9268-55e903ac4561",
      "resource": {
        "resourceType": "Ingredient",
        "id": "Alburex-50g-L-Solution-SE-AJ-Ingredient",
        "meta": {
          "profile": [
            "http://unicom-project.eu/fhir/StructureDefinition/PPLIngredient"
          ]
        },
        "status": "active",
        "for": [
          {
            "reference": "MedicinalProductDefinition/Alburex-50g-L-Solution-SE-AJ-MedicinalProductDefinition"
          },
          {
            "reference": "ManufacturedItemDefinition/Alburex-50g-L-Solution-SE-AJ-ManufacturedItemDefinition01"
          },
          {
            "reference": "ManufacturedItemDefinition/Alburex-50g-L-Solution-SE-AJ-ManufacturedItemDefinition02"
          },
          {
            "reference": "AdministrableProductDefinition/Alburex-50g-L-Solution-SE-AJ-AdministrableProductDefinition"
          }
        ],
        "role": {
          "coding": [
            {
              "code": "100000072072",
              "system": "https://spor.ema.europa.eu/v1/lists/100000072050",
              "display": "Active"
            }
          ]
        },
        "substance": {
          "code": {
            "concept": {
              "coding": [
                {
                  "code": "100000089024",
                  "system": "https://spor.azure-api.net/sms/api/v2/SubstanceDefinition",
                  "display": "human serum albumin"
                }
              ]
            }
          },
          "strength": [
            {
              "concentrationRatio": {
                "numerator": {
                  "value": 50,
                  "code": "100000110654",
                  "system": "http://spor.ema.europa.eu/v1/lists/100000110633",
                  "unit": "gram(s)"
                },
                "denominator": {
                  "value": 1,
                  "code": "100000110661",
                  "system": "http://spor.ema.europa.eu/v1/lists/100000110633",
                  "unit": "litre(s)"
                }
              },
              "referenceStrength": [
                {
                  "substance": {
                    "concept": {
                      "coding": [
                        {
                          "code": "100000089024",
                          "system": "https://spor.azure-api.net/sms/api/v2/SubstanceDefinition",
                          "display": "human serum albumin"
                        }
                      ]
                    }
                  },
                  "strengthRatio": {
                    "numerator": {
                      "value": 50,
                      "code": "100000110654",
                      "system": "https://spor.ema.europa.eu/v1/lists/100000110633",
                      "unit": "gram(s)"
                    },
                    "denominator": {
                      "value": 1,
                      "code": "100000110661",
                      "system": "https://spor.ema.europa.eu/v1/lists/100000110633",
                      "unit": "litre(s)"
                    }
                  }
                }
              ]
            }
          ]
        }
      }
    }
  ]
}
