{
  "resourceType": "Bundle",
  "id": "GOFSH-GENERATED-ID-217",
  "type": "collection",
  "entry": [
    {
      "resource": {
        "resourceType": "MedicinalProductDefinition",
        "id": "TPTDteva-2080-Solution-SE-IS-MedicinalProductDefinition",
        "meta": {
          "profile": [
            "http://unicom-project.eu/fhir/StructureDefinition/PPLMedicinalProductDefinition"
          ]
        },
        "identifier": [
          {
            "system": "http://ema.europa.eu/fhir/mpId",
            "value": "SE-100001594-00053004"
          },
          {
            "system": "http://ema.europa.eu/fhir/eurdId",
            "value": "2903"
          }
        ],
        "combinedPharmaceuticalDoseForm": {
          "coding": [
            {
              "code": "100000074039",
              "system": "https://spor.ema.europa.eu/v1/lists/200000000007",
              "display": "Solution for injection in pre-filled pen"
            }
          ]
        },
        "domain": {
          "coding": [
            {
              "code": "100000000012",
              "system": "https://spor.ema.europa.eu/v1/lists/100000000004",
              "display": "Human use"
            }
          ]
        },
        "status": {
          "coding": [
            {
              "code": "200000005004",
              "system": "https://spor.ema.europa.eu/v1/lists/200000005003",
              "display": "Current"
            }
          ]
        },
        "indication": "Teriparatide Teva är avsett för vuxna. Behandling av osteoporos hos postmenopausala kvinnor och hos män med ökad risk för frakturer (se  avsnitt 5.1). Incidensen vertebrala och icke-vertebrala frakturer reduceras signifikant hos  postmenopausala kvinnor men detta har ej visats för höftfrakturer. Behandling av osteoporos i samband med kronisk systemisk glukokortikoidbehandling hos kvinnor  och män med ökad risk för frakturer (se avsnitt 5.1). ",
        "legalStatusOfSupply": {
          "coding": [
            {
              "code": "100000072084",
              "system": "https://spor.ema.europa.eu/v1/lists/100000072051",
              "display": "Medicinal product subject to medical prescription"
            }
          ]
        },
        "classification": [
          {
            "coding": [
              {
                "code": "100000093533",
                "system": "https://spor.ema.europa.eu/v1/lists/100000116677",
                "display": "H05AA02"
              }
            ]
          }
        ],
        "name": [
          {
            "productName": "Teriparatide Teva 20 mikrogram/80 mikroliter Injektionsvätska, lösning i förf. injektionspenna"
          }
        ]
      }
    },
    {
      "resource": {
        "resourceType": "RegulatedAuthorization",
        "id": "TPTDteva-2080-Solution-SE-IS-RegulatedAuthorization",
        "meta": {
          "profile": [
            "http://unicom-project.eu/fhir/StructureDefinition/PPLRegulatedAuthorization"
          ]
        },
        "type": {
          "coding": [
            {
              "system": "https://spor.ema.europa.eu/v1/lists/220000000060",
              "code": "220000000061",
              "display": "Marketing Authorisation"
            }
          ]
        },
        "identifier": [
          {
            "system": "http://ema.europa.eu/fhir/marketingAuthorizationNumber",
            "value": "53004"
          }
        ],
        "subject": [
          {
            "reference": "MedicinalProductDefinition/TPTDteva-2080-Solution-SE-IS-MedicinalProductDefinition"
          }
        ],
        "region": [
          {
            "coding": [
              {
                "code": "100000000535",
                "system": "https://spor.ema.europa.eu/v1/lists/100000000002",
                "display": "Sweden"
              }
            ]
          }
        ],
        "status": {
          "coding": [
            {
              "code": "100000072099",
              "system": "https://spor.ema.europa.eu/v1/lists/100000072049",
              "display": "Valid"
            }
          ]
        },
        "statusDate": "2016-12-05",
        "case": {
          "type": {
            "coding": [
              {
                "code": "dateOfFirstAuthorisation",
                "system": "https://ema.europa.eu/fhir/authorisationDateType",
                "display": "First Authorisation"
              }
            ]
          },
          "dateDateTime": "2016-12-05"
        },
        "holder": {
          "reference": "Organization/LOC-100007927"
        }
      }
    },
    {
      "resource": {
        "resourceType": "AdministrableProductDefinition",
        "id": "TPTDteva-2080-Solution-SE-IS-AdministrableProductDefinition",
        "meta": {
          "profile": [
            "http://unicom-project.eu/fhir/StructureDefinition/PPLAdministrableProductDefinition"
          ]
        },
        "status": "active",
        "formOf": [
          {
            "reference": "MedicinalProductDefinition/TPTDteva-2080-Solution-SE-IS-MedicinalProductDefinition"
          }
        ],
        "administrableDoseForm": {
          "coding": [
            {
              "code": "100000073863",
              "system": "https://spor.ema.europa.eu/v1/lists/200000000004",
              "display": "Solution for injection"
            }
          ]
        },
        "producedFrom": [
          {
            "reference": "ManufacturedItemDefinition/TPTDteva-2080-Solution-SE-IS-ManufacturedItemDefinition"
          }
        ],
        "routeOfAdministration": [
          {
            "code": {
              "coding": [
                {
                  "code": "100000073633",
                  "system": "https://spor.ema.europa.eu/v1/lists/100000073345",
                  "display": "Subcutaneous use"
                }
              ]
            }
          }
        ]
      }
    },
    {
      "resource": {
        "resourceType": "PackagedProductDefinition",
        "id": "TPTDteva-2080-Solution-SE-IS-PackagedProductDefinition",
        "meta": {
          "profile": [
            "http://unicom-project.eu/fhir/StructureDefinition/PPLPackagedProductDefinition"
          ]
        },
        "identifier": [
          {
            "system": "http://ema.europa.eu/example/pcid"
          }
        ],
        "packaging": {
          "type": {
            "coding": [
              {
                "system": "https://spor.ema.europa.eu/v1/lists/100000073346",
                "code": "100000073498",
                "display": "Box"
              }
            ]
          },
          "quantity": 1
        },
        "containedItemQuantity": [
          {
            "value": 28,
            "code": "200000002163",
            "system": "http://spor.ema.europa.eu/v1/lists/200000000014",
            "unit": "Actuation"
          }
        ],
        "packageFor": [
          {
            "reference": "MedicinalProductDefinition/TPTDteva-2080-Solution-SE-IS-MedicinalProductDefinition"
          }
        ],
        "description": "Förfylld injektionspenna, 1 x 2,4 ml",
        "marketingStatus": [
          {
            "country": {
              "coding": [
                {
                  "code": "100000000535",
                  "system": "https://spor.ema.europa.eu/v1/lists/100000000002",
                  "display": "Sweden"
                }
              ]
            },
            "status": {
              "coding": [
                {
                  "code": "100000072083",
                  "system": "https://spor.ema.europa.eu/v1/lists/100000072052",
                  "display": "Marketed"
                }
              ]
            }
          }
        ]
      }
    },
    {
      "resource": {
        "resourceType": "ManufacturedItemDefinition",
        "id": "TPTDteva-2080-Solution-SE-IS-ManufacturedItemDefinition",
        "meta": {
          "profile": [
            "http://unicom-project.eu/fhir/StructureDefinition/PPLManufacturedItemDefinition"
          ]
        },
        "status": "active",
        "manufacturedDoseForm": {
          "coding": [
            {
              "code": "100000074039",
              "system": "https://spor.ema.europa.eu/v1/lists/200000000007",
              "display": "Solution for injection in pre-filled pen"
            }
          ]
        },
        "unitOfPresentation": {
          "coding": [
            {
              "code": "200000002135",
              "system": "https://spor.ema.europa.eu/v1/lists/200000000014",
              "display": "Pen"
            }
          ]
        }
      }
    },
    {
      "resource": {
        "resourceType": "Ingredient",
        "id": "TPTDteva-2080-Solution-SE-IS-Ingredient",
        "meta": {
          "profile": [
            "http://unicom-project.eu/fhir/StructureDefinition/PPLIngredient"
          ]
        },
        "status": "active",
        "for": [
          {
            "reference": "MedicinalProductDefinition/TPTDteva-2080-Solution-SE-IS-MedicinalProductDefinition"
          },
          {
            "reference": "ManufacturedItemDefinition/TPTDteva-2080-Solution-SE-IS-ManufacturedItemDefinition"
          },
          {
            "reference": "AdministrableProductDefinition/TPTDteva-2080-Solution-SE-IS-AdministrableProductDefinition"
          }
        ],
        "role": {
          "coding": [
            {
              "code": "100000072072",
              "system": "https://spor.ema.europa.eu/v1/lists/100000072050",
              "display": "Active"
            }
          ]
        },
        "substance": {
          "code": {
            "concept": {
              "coding": [
                {
                  "code": "100000089193",
                  "system": "https://spor.azure-api.net/sms/api/v2/SubstanceDefinition",
                  "display": "Teriparatide"
                }
              ]
            }
          },
          "strength": [
            {
              "concentrationRatio": {
                "numerator": {
                  "value": 0.25,
                  "code": "100000110655",
                  "system": "http://spor.ema.europa.eu/v1/lists/100000110633",
                  "unit": "milligram(s)"
                },
                "denominator": {
                  "value": 1,
                  "code": "100000110662",
                  "system": "http://spor.ema.europa.eu/v1/lists/100000110633",
                  "unit": "milliliter(s)"
                }
              },
              "referenceStrength": [
                {
                  "substance": {
                    "concept": {
                      "coding": [
                        {
                          "code": "100000089193",
                          "system": "https://spor.azure-api.net/sms/api/v2/SubstanceDefinition",
                          "display": "Teriparatide"
                        }
                      ]
                    }
                  },
                  "strengthRatio": {
                    "numerator": {
                      "value": 0.25,
                      "code": "100000110655",
                      "system": "http://spor.ema.europa.eu/v1/lists/100000110633",
                      "unit": "milligram(s)"
                    },
                    "denominator": {
                      "value": 1,
                      "code": "100000110662",
                      "system": "http://spor.ema.europa.eu/v1/lists/100000110633",
                      "unit": "milliliter(s)"
                    }
                  }
                }
              ]
            }
          ]
        }
      }
    }
  ]
}
