{
  "resourceType": "Bundle",
  "id": "GOFSH-GENERATED-ID-80",
  "type": "collection",
  "entry": [
    {
      "resource": {
        "resourceType": "MedicinalProductDefinition",
        "id": "EnoxaparinLedraxen2000IEinjektion-SE-PLC-MedicinalProductDef",
        "meta": {
          "profile": [
            "http://unicom-project.eu/fhir/StructureDefinition/PPLMedicinalProductDefinition"
          ]
        },
        "identifier": [
          {
            "system": "http://ema.europa.eu/fhir/mpId",
            "value": "SE-100003311-00054214"
          },
          {
            "system": "http://ema.europa.eu/fhir/eurdId",
            "value": "10833"
          }
        ],
        "name": [
          {
            "usage": [
              {
                "country": {
                  "coding": [
                    {
                      "system": "https://spor.ema.europa.eu/v1/lists/100000000002",
                      "display": "Sweden"
                    }
                  ]
                },
                "language": {
                  "coding": [
                    {
                      "code": "sv",
                      "system": "urn:ietf:bcp:47",
                      "display": "Swedish"
                    }
                  ]
                }
              }
            ],
            "productName": "Enoxaparin Ledraxen 2000 IE (20 mg)/0,2 ml injektionsvätska, lösning i förfylld spruta"
          }
        ],
        "combinedPharmaceuticalDoseForm": {
          "coding": [
            {
              "code": "100000074047",
              "system": "https://spor.ema.europa.eu/v1/lists/200000000004~200000000006~200000000007~200000000008",
              "display": "Solution for injection in pre-filled syringe"
            }
          ]
        },
        "domain": {
          "coding": [
            {
              "code": "100000000012",
              "system": "https://spor.ema.europa.eu/v1/lists/100000000004",
              "display": "Human use"
            }
          ]
        },
        "status": {
          "coding": [
            {
              "code": "200000005004",
              "system": "https://spor.ema.europa.eu/v1/lists/200000005003",
              "display": "Current"
            }
          ]
        },
        "indication": "Enoxaparin Becat är avsett för vuxna för:  Profylax mot venös tromboembolism, hos patienter med måttlig och hög risk särskilt i samband med ortopedisk, allmän eller onkologisk kirurgi  Profylax av venös tromboembolism hos patienter i sängläge på grund av akut sjukdom som till exempel akut hjärtsvikt, akut andningssvikt, allvarlig infektion samt förvärrad reumatoid sjukdom som orsakar immobilisering av patienten  Behandling av djup ventrombos (DVT) och lungemboli med undantag av lungemboli (LE) som förutsätter trombolytisk terapi eller kirurgi  Trombosprofylax i den extrakorporeala cirkulationen under hemodialys  Akut kranskärlssjukdom:  Behandling av instabil angina och myokardinfarkt med icke ST-höjning (NSTEMI) i kombination med per oral ASA (acetylsalicylsyra).  Behandling av akut hjärtinfarkt med ST-höjning (STEMI), inkluderande patienter som ska få konservativ behandling eller som senare ska behandlas med koronarangioplastik (PCI).",
        "legalStatusOfSupply": {
          "coding": [
            {
              "code": "100000072084",
              "system": "https://spor.ema.europa.eu/v1/lists/100000072051",
              "display": "Medicinal product subject to medical prescription"
            }
          ]
        },
        "classification": [
          {
            "coding": [
              {
                "code": "100000094266",
                "system": "https://spor.ema.europa.eu/v1/lists/100000093533",
                "display": "B01AB05"
              }
            ]
          }
        ]
      }
    },
    {
      "resource": {
        "resourceType": "RegulatedAuthorization",
        "id": "EnoxaparinLedraxen2000IEinjektion-SE-PLC-RegAutho",
        "meta": {
          "profile": [
            "http://unicom-project.eu/fhir/StructureDefinition/PPLRegulatedAuthorization"
          ]
        },
        "type": {
          "coding": [
            {
              "system": "https://spor.ema.europa.eu/v1/lists/220000000060",
              "code": "220000000061",
              "display": "Marketing Authorisation"
            }
          ]
        },
        "identifier": [
          {
            "system": "http://ema.europa.eu/fhir/marketingAuthorizationNumber",
            "value": "54214"
          }
        ],
        "subject": [
          {
            "reference": "MedicinalProductDefinition/EnoxaparinLedraxen2000IEinjektion-SE-PLC-MedicinalProductDef"
          }
        ],
        "region": [
          {
            "coding": [
              {
                "code": "100000000535",
                "system": "https://spor.ema.europa.eu/v1/lists/100000000002",
                "display": "Sweden"
              }
            ]
          }
        ],
        "status": {
          "coding": [
            {
              "code": "100000072099",
              "system": "https://spor.ema.europa.eu/v1/lists/100000072049",
              "display": "Valid"
            }
          ]
        },
        "statusDate": "2019-04-09",
        "case": {
          "type": {
            "coding": [
              {
                "code": "dateOfFirstAuthorisation",
                "system": "https://ema.europa.eu/fhir/authorisationDateType",
                "display": "First Authorisation"
              }
            ]
          },
          "dateDateTime": "2019-04-09"
        },
        "holder": {
          "reference": "Organization/LOC-100002081"
        }
      }
    },
    {
      "resource": {
        "resourceType": "AdministrableProductDefinition",
        "id": "EnoxaparinLedraxen2000IEinjektion-SE-PLC-AdminProductDef",
        "meta": {
          "profile": [
            "http://unicom-project.eu/fhir/StructureDefinition/PPLAdministrableProductDefinition"
          ]
        },
        "status": "active",
        "formOf": [
          {
            "reference": "MedicinalProductDefinition/EnoxaparinLedraxen2000IEinjektion-SE-PLC-MedicinalProductDef"
          }
        ],
        "administrableDoseForm": {
          "coding": [
            {
              "code": "100000073863",
              "system": "https://spor.ema.europa.eu/v1/lists/200000000004",
              "display": "Solution for injection"
            }
          ]
        },
        "producedFrom": [
          {
            "reference": "ManufacturedItemDefinition/EnoxaparinLedraxen2000IEinjektion-SE-PLC-ManufacturedItemDef"
          }
        ],
        "routeOfAdministration": [
          {
            "code": {
              "coding": [
                {
                  "code": "100000073611",
                  "system": "https://spor.ema.europa.eu/v1/lists/100000073345",
                  "display": "Intravenous use"
                },
                {
                  "code": "100000073633",
                  "system": "https://spor.ema.europa.eu/v1/lists/100000073345",
                  "display": "Subcutaneous use"
                }
              ]
            }
          }
        ]
      }
    },
    {
      "resource": {
        "resourceType": "PackagedProductDefinition",
        "id": "EnoxaparinLedraxen2000IEinjektion-SE-PLC-PackageProductDef",
        "meta": {
          "profile": [
            "http://unicom-project.eu/fhir/StructureDefinition/PPLPackagedProductDefinition"
          ]
        },
        "identifier": [
          {
            "system": "http://ema.europa.eu/example/pcid"
          }
        ],
        "packaging": {
          "type": {
            "coding": [
              {
                "system": "https://spor.ema.europa.eu/v1/lists/100000073346",
                "code": "100000073498",
                "display": "Box"
              }
            ]
          },
          "quantity": 1
        },
        "containedItemQuantity": [
          {
            "value": 10,
            "code": "200000002150",
            "system": "http://spor.ema.europa.eu/v1/lists/200000000014",
            "unit": "Syringe"
          }
        ],
        "packageFor": [
          {
            "reference": "MedicinalProductDefinition/EnoxaparinLedraxen2000IEinjektion-SE-PLC-MedicinalProductDef"
          }
        ],
        "description": "Förfylld spruta, 10 st (utan säkerhetssystem)",
        "marketingStatus": [
          {
            "country": {
              "coding": [
                {
                  "code": "100000000535",
                  "system": "https://spor.ema.europa.eu/v1/lists/100000000002",
                  "display": "Sweden"
                }
              ]
            },
            "status": {
              "coding": [
                {
                  "code": "100000072083",
                  "system": "https://spor.ema.europa.eu/v1/lists/100000072052",
                  "display": "Marketed"
                }
              ]
            }
          }
        ]
      }
    },
    {
      "resource": {
        "resourceType": "ManufacturedItemDefinition",
        "id": "EnoxaparinLedraxen2000IEinjektion-SE-PLC-ManufacturedItemDef",
        "meta": {
          "profile": [
            "http://unicom-project.eu/fhir/StructureDefinition/PPLManufacturedItemDefinition"
          ]
        },
        "status": "active",
        "manufacturedDoseForm": {
          "coding": [
            {
              "code": "100000073863",
              "system": "https://spor.ema.europa.eu/v1/lists/200000000004",
              "display": "Solution for injection"
            }
          ]
        },
        "unitOfPresentation": {
          "coding": [
            {
              "code": "200000002150",
              "system": "https://spor.ema.europa.eu/v1/lists/200000000014",
              "display": "Syringe"
            }
          ]
        }
      }
    },
    {
      "resource": {
        "resourceType": "Ingredient",
        "id": "EnoxaparinLedraxen2000IEinjektion-SE-PLC-Ingredient",
        "meta": {
          "profile": [
            "http://unicom-project.eu/fhir/StructureDefinition/PPLIngredient"
          ]
        },
        "status": "active",
        "for": [
          {
            "reference": "MedicinalProductDefinition/EnoxaparinLedraxen2000IEinjektion-SE-PLC-MedicinalProductDef"
          },
          {
            "reference": "ManufacturedItemDefinition/EnoxaparinLedraxen2000IEinjektion-SE-PLC-ManufacturedItemDef"
          },
          {
            "reference": "AdministrableProductDefinition/EnoxaparinLedraxen2000IEinjektion-SE-PLC-AdminProductDef"
          }
        ],
        "role": {
          "coding": [
            {
              "code": "100000072072",
              "system": "https://spor.ema.europa.eu/v1/lists/100000072050",
              "display": "Active"
            }
          ]
        },
        "substance": {
          "code": {
            "concept": {
              "coding": [
                {
                  "code": "100000090152",
                  "system": "https://spor.azure-api.net/sms/api/v2/SubstanceDefinition",
                  "display": "Enoxaparin sodium"
                }
              ]
            }
          },
          "strength": [
            {
              "concentrationRatio": {
                "numerator": {
                  "value": 20,
                  "code": "100000110655",
                  "system": "https://spor.ema.europa.eu/v1/lists/100000110633",
                  "unit": "milligram(s)"
                },
                "denominator": {
                  "value": 0.2,
                  "code": "100000110662",
                  "system": "https://spor.ema.europa.eu/v1/lists/100000110633",
                  "unit": "millilitre(s)"
                }
              },
              "referenceStrength": [
                {
                  "substance": {
                    "concept": {
                      "coding": [
                        {
                          "code": "100000085598",
                          "system": "https://spor.azure-api.net/sms/api/v2/SubstanceDefinition",
                          "display": "Enoxaparin"
                        }
                      ]
                    }
                  },
                  "strengthRatio": {
                    "numerator": {
                      "value": 2000,
                      "code": "100000110655",
                      "system": "https://spor.ema.europa.eu/v1/lists/100000110633",
                      "unit": "international unit(s)"
                    },
                    "denominator": {
                      "value": 0.2,
                      "code": "100000110662",
                      "system": "https://spor.ema.europa.eu/v1/lists/100000110633",
                      "unit": "millilitre(s)"
                    }
                  }
                }
              ]
            }
          ]
        }
      }
    }
  ]
}
