{
  "resourceType": "Bundle",
  "id": "GOFSH-GENERATED-ID-64",
  "type": "collection",
  "entry": [
    {
      "resource": {
        "resourceType": "MedicinalProductDefinition",
        "id": "DiklofenakTeva116mgggel-SE-PLC-MedicinalProductDef",
        "meta": {
          "profile": [
            "http://unicom-project.eu/fhir/StructureDefinition/PPLMedicinalProductDefinition"
          ]
        },
        "identifier": [
          {
            "system": "http://ema.europa.eu/fhir/mpId",
            "value": "SE-100000229-00060736"
          },
          {
            "system": "http://ema.europa.eu/fhir/eurdId",
            "value": "10342"
          }
        ],
        "name": [
          {
            "usage": [
              {
                "country": {
                  "coding": [
                    {
                      "system": "https://spor.ema.europa.eu/v1/lists/100000000002",
                      "display": "Sweden"
                    }
                  ]
                },
                "language": {
                  "coding": [
                    {
                      "code": "sv",
                      "system": "urn:ietf:bcp:47",
                      "display": "Swedish"
                    }
                  ]
                }
              }
            ],
            "productName": "Diklofenak Teva 11,6 mg/g gel"
          }
        ],
        "combinedPharmaceuticalDoseForm": {
          "coding": [
            {
              "code": "100000073726",
              "system": "https://spor.ema.europa.eu/v1/lists/200000000004~200000000006~200000000007~200000000008",
              "display": "Gel"
            }
          ]
        },
        "domain": {
          "coding": [
            {
              "code": "100000000012",
              "system": "https://spor.ema.europa.eu/v1/lists/100000000004",
              "display": "Human use"
            }
          ]
        },
        "status": {
          "coding": [
            {
              "code": "200000005004",
              "system": "https://spor.ema.europa.eu/v1/lists/200000005003",
              "display": "Current"
            }
          ]
        },
        "indication": "För kortvarig lokal, symtomatisk behandling av lätt till måttlig smärta i samband med muskel- och ledskador, som t.ex. sportskador.",
        "legalStatusOfSupply": {
          "coding": [
            {
              "code": "100000072076",
              "system": "https://spor.ema.europa.eu/v1/lists/100000072051",
              "display": "Medicinal product not subject to medical prescription"
            }
          ]
        },
        "classification": [
          {
            "coding": [
              {
                "code": "100000097012",
                "system": "https://spor.ema.europa.eu/v1/lists/100000093533",
                "display": "M02AA15"
              }
            ]
          }
        ]
      }
    },
    {
      "resource": {
        "resourceType": "RegulatedAuthorization",
        "id": "DiklofenakTeva116mgggel-SE-PLC-RegAutho",
        "meta": {
          "profile": [
            "http://unicom-project.eu/fhir/StructureDefinition/PPLRegulatedAuthorization"
          ]
        },
        "type": {
          "coding": [
            {
              "system": "https://spor.ema.europa.eu/v1/lists/220000000060",
              "code": "220000000061",
              "display": "Marketing Authorisation"
            }
          ]
        },
        "identifier": [
          {
            "system": "http://ema.europa.eu/fhir/marketingAuthorizationNumber",
            "value": "60736"
          }
        ],
        "subject": [
          {
            "reference": "MedicinalProductDefinition/DiklofenakTeva116mgggel-SE-PLC-MedicinalProductDef"
          }
        ],
        "region": [
          {
            "coding": [
              {
                "code": "100000000535",
                "system": "https://spor.ema.europa.eu/v1/lists/100000000002",
                "display": "Sweden"
              }
            ]
          }
        ],
        "status": {
          "coding": [
            {
              "code": "100000072099",
              "system": "https://spor.ema.europa.eu/v1/lists/100000072049",
              "display": "Valid"
            }
          ]
        },
        "statusDate": "2022-02-10",
        "case": {
          "type": {
            "coding": [
              {
                "code": "dateOfFirstAuthorisation",
                "system": "https://ema.europa.eu/fhir/authorisationDateType",
                "display": "First Authorisation"
              }
            ]
          },
          "dateDateTime": "2022-02-10"
        },
        "holder": {
          "reference": "Organization/LOC-100005270"
        }
      }
    },
    {
      "resource": {
        "resourceType": "AdministrableProductDefinition",
        "id": "DiklofenakTeva116mgggelSE-PLC-AdminProductDef",
        "meta": {
          "profile": [
            "http://unicom-project.eu/fhir/StructureDefinition/PPLAdministrableProductDefinition"
          ]
        },
        "status": "active",
        "formOf": [
          {
            "reference": "MedicinalProductDefinition/DiklofenakTeva116mgggel-SE-PLC-MedicinalProductDef"
          }
        ],
        "administrableDoseForm": {
          "coding": [
            {
              "code": "100000073726",
              "system": "https://spor.ema.europa.eu/v1/lists/200000000004",
              "display": "Gel"
            }
          ]
        },
        "producedFrom": [
          {
            "reference": "ManufacturedItemDefinition/DiklofenakTeva116mgggel-SE-PLC-ManufacturedItemDef"
          }
        ],
        "routeOfAdministration": [
          {
            "code": {
              "coding": [
                {
                  "code": "100000073566",
                  "system": "https://spor.ema.europa.eu/v1/lists/100000073345",
                  "display": "Cutaneous use"
                }
              ]
            }
          }
        ]
      }
    },
    {
      "resource": {
        "resourceType": "PackagedProductDefinition",
        "id": "DiklofenakTeva116mgggel-SE-PLC-PackageProductDef01",
        "meta": {
          "profile": [
            "http://unicom-project.eu/fhir/StructureDefinition/PPLPackagedProductDefinition"
          ]
        },
        "identifier": [
          {
            "system": "http://ema.europa.eu/example/pcid"
          }
        ],
        "packaging": {
          "type": {
            "coding": [
              {
                "system": "https://spor.ema.europa.eu/v1/lists/100000073346",
                "code": "100000073498",
                "display": "Box"
              }
            ]
          },
          "quantity": 1
        },
        "containedItemQuantity": [
          {
            "value": 1,
            "code": "200000002156",
            "system": "http://spor.ema.europa.eu/v1/lists/200000000014",
            "unit": "Tube"
          }
        ],
        "packageFor": [
          {
            "reference": "MedicinalProductDefinition/DiklofenakTeva116mgggel-SE-PLC-MedicinalProductDef"
          }
        ],
        "description": "Tub, 100 g",
        "marketingStatus": [
          {
            "country": {
              "coding": [
                {
                  "code": "100000000535",
                  "system": "https://spor.ema.europa.eu/v1/lists/100000000002",
                  "display": "Sweden"
                }
              ]
            },
            "status": {
              "coding": [
                {
                  "code": "100000072083",
                  "system": "https://spor.ema.europa.eu/v1/lists/100000072052",
                  "display": "Marketed"
                }
              ]
            }
          }
        ]
      }
    },
    {
      "resource": {
        "resourceType": "ManufacturedItemDefinition",
        "id": "DiklofenakTeva116mgggel-SE-PLC-ManufacturedItemDef",
        "meta": {
          "profile": [
            "http://unicom-project.eu/fhir/StructureDefinition/PPLManufacturedItemDefinition"
          ]
        },
        "status": "active",
        "manufacturedDoseForm": {
          "coding": [
            {
              "code": "100000073726",
              "system": "https://spor.ema.europa.eu/v1/lists/200000000004",
              "display": "Gel"
            }
          ]
        },
        "unitOfPresentation": {
          "coding": [
            {
              "code": "200000002156",
              "system": "https://spor.ema.europa.eu/v1/lists/200000000014",
              "display": "Tube"
            }
          ]
        }
      }
    },
    {
      "resource": {
        "resourceType": "Ingredient",
        "id": "DiklofenakTeva116mgggel-SE-PLC-Ingredient",
        "meta": {
          "profile": [
            "http://unicom-project.eu/fhir/StructureDefinition/PPLIngredient"
          ]
        },
        "status": "active",
        "for": [
          {
            "reference": "MedicinalProductDefinition/DiklofenakTeva116mgggel-SE-PLC-MedicinalProductDef"
          },
          {
            "reference": "ManufacturedItemDefinition/DiklofenakTeva116mgggel-SE-PLC-ManufacturedItemDef"
          },
          {
            "reference": "AdministrableProductDefinition/DiklofenakTeva116mgggelSE-PLC-AdminProductDef"
          }
        ],
        "role": {
          "coding": [
            {
              "code": "100000072072",
              "system": "https://spor.ema.europa.eu/v1/lists/100000072050",
              "display": "Active"
            }
          ]
        },
        "substance": {
          "code": {
            "concept": {
              "coding": [
                {
                  "code": "100000091074",
                  "system": "https://spor.azure-api.net/sms/api/v2/SubstanceDefinition",
                  "display": "Diclofenac diethylamine"
                }
              ]
            }
          },
          "strength": [
            {
              "concentrationRatio": {
                "numerator": {
                  "value": 11.6,
                  "code": "100000110655",
                  "system": "https://spor.ema.europa.eu/v1/lists/100000110633",
                  "unit": "milligram(s)"
                },
                "denominator": {
                  "value": 1,
                  "code": "100000110654",
                  "system": "https://spor.ema.europa.eu/v1/lists/100000110633",
                  "unit": "gram(s)"
                }
              },
              "referenceStrength": [
                {
                  "substance": {
                    "concept": {
                      "coding": [
                        {
                          "code": "100000092798",
                          "system": "https://spor.azure-api.net/sms/api/v2/SubstanceDefinition",
                          "display": "Diclofenac"
                        }
                      ]
                    }
                  },
                  "strengthRatio": {
                    "numerator": {
                      "value": 9.3,
                      "code": "100000110655",
                      "system": "https://spor.ema.europa.eu/v1/lists/100000110633",
                      "unit": "milligram(s)"
                    },
                    "denominator": {
                      "value": 1,
                      "code": "100000110654",
                      "system": "https://spor.ema.europa.eu/v1/lists/200000000014",
                      "unit": "gram(s)"
                    }
                  }
                }
              ]
            }
          ]
        }
      }
    }
  ]
}
