{
  "resourceType": "Bundle",
  "id": "GOFSH-GENERATED-ID-254",
  "type": "collection",
  "entry": [
    {
      "resource": {
        "resourceType": "MedicinalProductDefinition",
        "id": "VaxigripTetra-0.5ml-Suspension-SE-AJ-MedicinalProductDefinition",
        "meta": {
          "profile": [
            "http://unicom-project.eu/fhir/StructureDefinition/PPLMedicinalProductDefinition"
          ]
        },
        "identifier": [
          {
            "system": "http://ema.europa.eu/fhir/mpId",
            "value": "SE-100005958-00053400"
          },
          {
            "system": "http://ema.europa.eu/fhir/eurdId",
            "value": "10298"
          }
        ],
        "name": [
          {
            "usage": [
              {
                "country": {
                  "coding": [
                    {
                      "system": "https://spor.ema.europa.eu/v1/lists/100000000002",
                      "display": "Sweden"
                    }
                  ]
                },
                "language": {
                  "coding": [
                    {
                      "code": "sv",
                      "system": "urn:ietf:bcp:47",
                      "display": "Swedish"
                    }
                  ]
                }
              }
            ],
            "productName": "VaxigripTetra Injektionsvätska, suspension, förfylld spruta"
          }
        ],
        "combinedPharmaceuticalDoseForm": {
          "coding": [
            {
              "code": "100000074063",
              "system": "https://spor.ema.europa.eu/v1/lists/200000000007",
              "display": "Suspension for injection in pre-filled syringe"
            }
          ]
        },
        "domain": {
          "coding": [
            {
              "code": "100000000012",
              "system": "https://spor.ema.europa.eu/v1/lists/100000000004",
              "display": "human use"
            }
          ]
        },
        "status": {
          "coding": [
            {
              "code": "200000005004",
              "system": "https://spor.ema.europa.eu/v1/lists/200000005003",
              "display": "Current"
            }
          ]
        },
        "indication": "VaxigripTetra är avsett för att förebygga influensa orsakad av de två subtyper av influensa A virus och  två typer av influensa B virus som finns i vaccinet för: - aktiv immunisering av vuxna, inklusive gravida kvinnor, och barn från 6 månader och uppåt - passivt skydd av nyfödda och spädbarn under 6 månader efter vaccinering av gravida kvinnor (se  avsnitt 4.4, 4.6 och 5.1) Användning av VaxigripTetra ska bedömas på basis av officiella rekommendationer. ",
        "legalStatusOfSupply": {
          "coding": [
            {
              "code": "100000072084",
              "system": "https://spor.ema.europa.eu/v1/lists/100000072051",
              "display": "Medicinal product subject to medical prescription"
            }
          ]
        },
        "classification": [
          {
            "coding": [
              {
                "code": "100000096563",
                "system": "https://spor.ema.europa.eu/v1/lists/100000093533",
                "display": "J07BB02"
              }
            ]
          }
        ]
      }
    },
    {
      "resource": {
        "resourceType": "RegulatedAuthorization",
        "id": "VaxigripTetra-0.5ml-Suspension-SE-AJ-RegulatedAuthorization",
        "meta": {
          "profile": [
            "http://unicom-project.eu/fhir/StructureDefinition/PPLRegulatedAuthorization"
          ]
        },
        "type": {
          "coding": [
            {
              "system": "https://spor.ema.europa.eu/v1/lists/220000000060",
              "code": "220000000061",
              "display": "Marketing Authorisation"
            }
          ]
        },
        "identifier": [
          {
            "system": "http://ema.europa.eu/fhir/marketingAuthorizationNumber",
            "value": "53400"
          }
        ],
        "subject": [
          {
            "reference": "MedicinalProductDefinition/VaxigripTetra-0.5ml-Suspension-SE-AJ-MedicinalProductDefinition"
          }
        ],
        "region": [
          {
            "coding": [
              {
                "code": "100000000535",
                "system": "https://spor.ema.europa.eu/v1/lists/100000000002",
                "display": "Sweden"
              }
            ]
          }
        ],
        "status": {
          "coding": [
            {
              "code": "100000072099",
              "system": "https://spor.ema.europa.eu/v1/lists/100000072049",
              "display": "Valid"
            }
          ]
        },
        "statusDate": "2016-11-25",
        "case": {
          "type": {
            "coding": [
              {
                "code": "dateOfFirstAuthorisation",
                "system": "https://ema.europa.eu/fhir/authorisationDateType",
                "display": "First Authorisation"
              }
            ]
          },
          "dateDateTime": "2016-11-25"
        },
        "holder": {
          "reference": "Organization/LOC-100010588"
        }
      }
    },
    {
      "resource": {
        "resourceType": "AdministrableProductDefinition",
        "id": "VaxigripTetra-0.5ml-Suspension-SE-AJ-AdministrableProductDef",
        "meta": {
          "profile": [
            "http://unicom-project.eu/fhir/StructureDefinition/PPLAdministrableProductDefinition"
          ]
        },
        "status": "active",
        "formOf": [
          {
            "reference": "MedicinalProductDefinition/VaxigripTetra-0.5ml-Suspension-SE-AJ-MedicinalProductDefinition"
          }
        ],
        "administrableDoseForm": {
          "coding": [
            {
              "code": "100000073864",
              "system": "https://spor.ema.europa.eu/v1/lists/200000000004",
              "display": "Suspension for injection"
            }
          ]
        },
        "producedFrom": [
          {
            "reference": "ManufacturedItemDefinition/VaxigripTetra-0.5ml-Suspension-SE-AJ-ManufacturedItemDefinition"
          }
        ],
        "routeOfAdministration": [
          {
            "code": {
              "coding": [
                {
                  "code": "100000073600",
                  "system": "https://spor.ema.europa.eu/v1/lists/100000073345",
                  "display": "Intramuscular use"
                }
              ]
            }
          },
          {
            "code": {
              "coding": [
                {
                  "code": "100000073633",
                  "system": "https://spor.ema.europa.eu/v1/lists/100000073345",
                  "display": "Subcutaneous use"
                }
              ]
            }
          }
        ]
      }
    },
    {
      "resource": {
        "resourceType": "PackagedProductDefinition",
        "id": "VaxigripTetra-0.5ml-Suspension-SE-AJ-PackagedProductDefinition01",
        "meta": {
          "profile": [
            "http://unicom-project.eu/fhir/StructureDefinition/PPLPackagedProductDefinition"
          ]
        },
        "identifier": [
          {
            "system": "http://ema.europa.eu/example/pcid"
          }
        ],
        "packaging": {
          "type": {
            "coding": [
              {
                "system": "https://spor.ema.europa.eu/v1/lists/100000073346",
                "code": "100000073498",
                "display": "Box"
              }
            ]
          },
          "quantity": 1
        },
        "containedItemQuantity": [
          {
            "value": 1,
            "code": "200000002150",
            "system": "http://spor.ema.europa.eu/v1/lists/200000000014",
            "unit": "syringe"
          }
        ],
        "packageFor": [
          {
            "reference": "MedicinalProductDefinition/VaxigripTetra-0.5ml-Suspension-SE-AJ-MedicinalProductDefinition"
          }
        ],
        "description": "förfylld spruta, 1 x 0,5 ml (med injektionsnål)",
        "marketingStatus": [
          {
            "country": {
              "coding": [
                {
                  "code": "100000000535",
                  "system": "https://spor.ema.europa.eu/v1/lists/100000000002",
                  "display": "Sweden"
                }
              ]
            },
            "status": {
              "coding": [
                {
                  "code": "100000072083",
                  "system": "https://spor.ema.europa.eu/v1/lists/100000072052",
                  "display": "Marketed"
                }
              ]
            }
          }
        ]
      }
    },
    {
      "resource": {
        "resourceType": "PackagedProductDefinition",
        "id": "VaxigripTetra-0.5ml-Suspension-SE-AJ-PackagedProductDefinition02",
        "meta": {
          "profile": [
            "http://unicom-project.eu/fhir/StructureDefinition/PPLPackagedProductDefinition"
          ]
        },
        "identifier": [
          {
            "system": "http://ema.europa.eu/example/pcid"
          }
        ],
        "packaging": {
          "type": {
            "coding": [
              {
                "system": "https://spor.ema.europa.eu/v1/lists/100000073346",
                "code": "100000073498",
                "display": "Box"
              }
            ]
          },
          "quantity": 1
        },
        "containedItemQuantity": [
          {
            "value": 10,
            "code": "200000002150",
            "system": "http://spor.ema.europa.eu/v1/lists/200000000014",
            "unit": "syringe"
          }
        ],
        "packageFor": [
          {
            "reference": "MedicinalProductDefinition/VaxigripTetra-0.5ml-Suspension-SE-AJ-MedicinalProductDefinition"
          }
        ],
        "description": "Förfylld spruta, 10 x 0,5 ml (med injektionsnål)",
        "marketingStatus": [
          {
            "country": {
              "coding": [
                {
                  "code": "100000000535",
                  "system": "https://spor.ema.europa.eu/v1/lists/100000000002",
                  "display": "Sweden"
                }
              ]
            },
            "status": {
              "coding": [
                {
                  "code": "100000072083",
                  "system": "https://spor.ema.europa.eu/v1/lists/100000072052",
                  "display": "Marketed"
                }
              ]
            }
          }
        ]
      }
    },
    {
      "resource": {
        "resourceType": "PackagedProductDefinition",
        "id": "VaxigripTetra-0.5ml-Suspension-SE-AJ-PackagedProductDefinition03",
        "meta": {
          "profile": [
            "http://unicom-project.eu/fhir/StructureDefinition/PPLPackagedProductDefinition"
          ]
        },
        "identifier": [
          {
            "system": "http://ema.europa.eu/example/pcid"
          }
        ],
        "packaging": {
          "type": {
            "coding": [
              {
                "system": "https://spor.ema.europa.eu/v1/lists/100000073346",
                "code": "100000073498",
                "display": "Box"
              }
            ]
          },
          "quantity": 1
        },
        "containedItemQuantity": [
          {
            "value": 10,
            "code": "200000002150",
            "system": "http://spor.ema.europa.eu/v1/lists/200000000014",
            "unit": "syringe"
          }
        ],
        "packageFor": [
          {
            "reference": "MedicinalProductDefinition/VaxigripTetra-0.5ml-Suspension-SE-AJ-MedicinalProductDefinition"
          }
        ],
        "description": "whatever the company calls the package in swedish",
        "marketingStatus": [
          {
            "country": {
              "coding": [
                {
                  "code": "100000000535",
                  "system": "https://spor.ema.europa.eu/v1/lists/100000000002",
                  "display": "Sweden"
                }
              ]
            },
            "status": {
              "coding": [
                {
                  "code": "100000072083",
                  "system": "https://spor.ema.europa.eu/v1/lists/100000072052",
                  "display": "Marketed"
                }
              ]
            }
          }
        ]
      }
    },
    {
      "resource": {
        "resourceType": "ManufacturedItemDefinition",
        "id": "VaxigripTetra-0.5ml-Suspension-SE-AJ-ManufacturedItemDefinition",
        "meta": {
          "profile": [
            "http://unicom-project.eu/fhir/StructureDefinition/PPLManufacturedItemDefinition"
          ]
        },
        "status": "active",
        "manufacturedDoseForm": {
          "coding": [
            {
              "code": "100000073864",
              "system": "https://spor.ema.europa.eu/v1/lists/200000000004",
              "display": "suspension for injection"
            }
          ]
        },
        "unitOfPresentation": {
          "coding": [
            {
              "code": "200000002150",
              "system": "https://spor.ema.europa.eu/v1/lists/200000000014",
              "display": "syringe"
            }
          ]
        }
      }
    },
    {
      "resource": {
        "resourceType": "Ingredient",
        "id": "VaxigripTetra-0.5ml-Suspension-SE-AJ-Ingredient01",
        "meta": {
          "profile": [
            "http://unicom-project.eu/fhir/StructureDefinition/PPLIngredient"
          ]
        },
        "status": "active",
        "for": [
          {
            "reference": "MedicinalProductDefinition/VaxigripTetra-0.5ml-Suspension-SE-AJ-MedicinalProductDefinition"
          },
          {
            "reference": "ManufacturedItemDefinition/VaxigripTetra-0.5ml-Suspension-SE-AJ-ManufacturedItemDefinition"
          },
          {
            "reference": "AdministrableProductDefinition/VaxigripTetra-0.5ml-Suspension-SE-AJ-AdministrableProductDef"
          }
        ],
        "role": {
          "coding": [
            {
              "code": "100000072072",
              "system": "https://spor.ema.europa.eu/v1/lists/100000072050",
              "display": "Active"
            }
          ]
        },
        "substance": {
          "code": {
            "concept": {
              "coding": [
                {
                  "code": "300000034518",
                  "system": "https://spor.azure-api.net/sms/api/v2/SubstanceDefinition",
                  "display": "Influenza A virus, A/Cambodia/e0826360/2020 (H3N2) - like strain (A/Tasmania/503/2020, IVR-221), Inactivated"
                }
              ]
            }
          },
          "strength": [
            {
              "presentationRatio": {
                "numerator": {
                  "value": 15,
                  "code": "100000110656",
                  "system": "https://spor.ema.europa.eu/v1/lists/100000110633",
                  "unit": "microgram(s)"
                },
                "denominator": {
                  "value": 1,
                  "code": "200000002150",
                  "system": "https://spor.ema.europa.eu/v1/lists/200000000014",
                  "unit": "syringe"
                }
              },
              "referenceStrength": [
                {
                  "substance": {
                    "concept": {
                      "coding": [
                        {
                          "code": "300000034518",
                          "system": "https://spor.azure-api.net/sms/api/v2/SubstanceDefinition",
                          "display": "Influenza A virus, A/Cambodia/e0826360/2020 (H3N2) - like strain (A/Tasmania/503/2020, IVR-221), Inactivated"
                        }
                      ]
                    }
                  },
                  "strengthRatio": {
                    "numerator": {
                      "value": 15,
                      "code": "100000110656",
                      "system": "https://spor.ema.europa.eu/v1/lists/100000110633",
                      "unit": "microgram(s)"
                    },
                    "denominator": {
                      "value": 1,
                      "code": "200000002150",
                      "system": "https://spor.ema.europa.eu/v1/lists/200000000014",
                      "unit": "syringe"
                    }
                  }
                }
              ]
            }
          ]
        }
      }
    },
    {
      "resource": {
        "resourceType": "Ingredient",
        "id": "VaxigripTetra-0.5ml-Suspension-SE-AJ-Ingredient02",
        "meta": {
          "profile": [
            "http://unicom-project.eu/fhir/StructureDefinition/PPLIngredient"
          ]
        },
        "status": "active",
        "for": [
          {
            "reference": "MedicinalProductDefinition/VaxigripTetra-0.5ml-Suspension-SE-AJ-MedicinalProductDefinition"
          },
          {
            "reference": "ManufacturedItemDefinition/VaxigripTetra-0.5ml-Suspension-SE-AJ-ManufacturedItemDefinition"
          },
          {
            "reference": "AdministrableProductDefinition/VaxigripTetra-0.5ml-Suspension-SE-AJ-AdministrableProductDef"
          }
        ],
        "role": {
          "coding": [
            {
              "code": "100000072072",
              "system": "https://spor.ema.europa.eu/v1/lists/100000072050",
              "display": "Active"
            }
          ]
        },
        "substance": {
          "code": {
            "concept": {
              "coding": [
                {
                  "code": "300000034498",
                  "system": "https://spor.azure-api.net/sms/api/v2/SubstanceDefinition",
                  "display": "A/Victoria/2570/2019 (H1N1)pdm09-like strain (A/Victoria/2570/2019, IVR-215)"
                }
              ]
            }
          },
          "strength": [
            {
              "presentationRatio": {
                "numerator": {
                  "value": 15,
                  "code": "100000110656",
                  "system": "https://spor.ema.europa.eu/v1/lists/100000110633",
                  "unit": "microgram(s)"
                },
                "denominator": {
                  "value": 1,
                  "code": "200000002150",
                  "system": "https://spor.ema.europa.eu/v1/lists/200000000014",
                  "unit": "syringe"
                }
              },
              "referenceStrength": [
                {
                  "substance": {
                    "concept": {
                      "coding": [
                        {
                          "code": "300000034498",
                          "system": "https://spor.azure-api.net/sms/api/v2/SubstanceDefinition",
                          "display": "A/Victoria/2570/2019 (H1N1)pdm09-like strain (A/Victoria/2570/2019, IVR-215)"
                        }
                      ]
                    }
                  },
                  "strengthRatio": {
                    "numerator": {
                      "value": 15,
                      "code": "100000110656",
                      "system": "https://spor.ema.europa.eu/v1/lists/100000110633",
                      "unit": "microgram(s)"
                    },
                    "denominator": {
                      "value": 1,
                      "code": "200000002150",
                      "system": "https://spor.ema.europa.eu/v1/lists/200000000014",
                      "unit": "syringe"
                    }
                  }
                }
              ]
            }
          ]
        }
      }
    },
    {
      "resource": {
        "resourceType": "Ingredient",
        "id": "VaxigripTetra-0.5ml-Suspension-SE-AJ-Ingredient03",
        "meta": {
          "profile": [
            "http://unicom-project.eu/fhir/StructureDefinition/PPLIngredient"
          ]
        },
        "status": "active",
        "for": [
          {
            "reference": "MedicinalProductDefinition/VaxigripTetra-0.5ml-Suspension-SE-AJ-MedicinalProductDefinition"
          },
          {
            "reference": "ManufacturedItemDefinition/VaxigripTetra-0.5ml-Suspension-SE-AJ-ManufacturedItemDefinition"
          },
          {
            "reference": "AdministrableProductDefinition/VaxigripTetra-0.5ml-Suspension-SE-AJ-AdministrableProductDef"
          }
        ],
        "role": {
          "coding": [
            {
              "code": "100000072072",
              "system": "https://spor.ema.europa.eu/v1/lists/100000072050",
              "display": "Active"
            }
          ]
        },
        "substance": {
          "code": {
            "concept": {
              "coding": [
                {
                  "code": "100000164127",
                  "system": "https://spor.azure-api.net/sms/api/v2/SubstanceDefinition",
                  "display": "B/PHUKET/3073/2013-LIKE VIRUS (B/PHUKET/3073/2013, WILD TYPE)"
                }
              ]
            }
          },
          "strength": [
            {
              "presentationRatio": {
                "numerator": {
                  "value": 15,
                  "code": "100000110656",
                  "system": "https://spor.ema.europa.eu/v1/lists/100000110633",
                  "unit": "microgram(s)"
                },
                "denominator": {
                  "value": 1,
                  "code": "200000002150",
                  "system": "https://spor.ema.europa.eu/v1/lists/200000000014",
                  "unit": "syringe"
                }
              },
              "referenceStrength": [
                {
                  "substance": {
                    "concept": {
                      "coding": [
                        {
                          "code": "100000164127",
                          "system": "https://spor.azure-api.net/sms/api/v2/SubstanceDefinition",
                          "display": "B/PHUKET/3073/2013-LIKE VIRUS (B/PHUKET/3073/2013, WILD TYPE)"
                        }
                      ]
                    }
                  },
                  "strengthRatio": {
                    "numerator": {
                      "value": 15,
                      "code": "100000110656",
                      "system": "https://spor.ema.europa.eu/v1/lists/100000110633",
                      "unit": "microgram(s)"
                    },
                    "denominator": {
                      "value": 1,
                      "code": "200000002150",
                      "system": "https://spor.ema.europa.eu/v1/lists/200000000014",
                      "unit": "syringe"
                    }
                  }
                }
              ]
            }
          ]
        }
      }
    },
    {
      "resource": {
        "resourceType": "Ingredient",
        "id": "VaxigripTetra-0.5ml-Suspension-SE-AJ-Ingredient04",
        "meta": {
          "profile": [
            "http://unicom-project.eu/fhir/StructureDefinition/PPLIngredient"
          ]
        },
        "status": "active",
        "for": [
          {
            "reference": "MedicinalProductDefinition/VaxigripTetra-0.5ml-Suspension-SE-AJ-MedicinalProductDefinition"
          },
          {
            "reference": "ManufacturedItemDefinition/VaxigripTetra-0.5ml-Suspension-SE-AJ-ManufacturedItemDefinition"
          },
          {
            "reference": "AdministrableProductDefinition/VaxigripTetra-0.5ml-Suspension-SE-AJ-AdministrableProductDef"
          }
        ],
        "role": {
          "coding": [
            {
              "code": "100000072072",
              "system": "https://spor.ema.europa.eu/v1/lists/100000072050",
              "display": "Active"
            }
          ]
        },
        "substance": {
          "code": {
            "concept": {
              "coding": [
                {
                  "code": "300000017594",
                  "system": "https://spor.azure-api.net/sms/api/v2/SubstanceDefinition",
                  "display": "B/Washington/02/2019 - like virus (B/Washington/02/2019, wild type)"
                }
              ]
            }
          },
          "strength": [
            {
              "presentationRatio": {
                "numerator": {
                  "value": 15,
                  "code": "100000110656",
                  "system": "https://spor.ema.europa.eu/v1/lists/100000110633",
                  "unit": "microgram(s)"
                },
                "denominator": {
                  "value": 1,
                  "code": "200000002150",
                  "system": "https://spor.ema.europa.eu/v1/lists/200000000014",
                  "unit": "syringe"
                }
              },
              "referenceStrength": [
                {
                  "substance": {
                    "concept": {
                      "coding": [
                        {
                          "code": "300000017594",
                          "system": "https://spor.azure-api.net/sms/api/v2/SubstanceDefinition",
                          "display": "B/Washington/02/2019 - like virus (B/Washington/02/2019, wild type)"
                        }
                      ]
                    }
                  },
                  "strengthRatio": {
                    "numerator": {
                      "value": 15,
                      "code": "100000110656",
                      "system": "https://spor.ema.europa.eu/v1/lists/100000110633",
                      "unit": "microgram(s)"
                    },
                    "denominator": {
                      "value": 1,
                      "code": "200000002150",
                      "system": "https://spor.ema.europa.eu/v1/lists/200000000014",
                      "unit": "syringe"
                    }
                  }
                }
              ]
            }
          ]
        }
      }
    }
  ]
}
