{
  "resourceType": "Bundle",
  "id": "GOFSH-GENERATED-ID-74",
  "type": "collection",
  "entry": [
    {
      "resource": {
        "resourceType": "MedicinalProductDefinition",
        "id": "Elvanse-50mg-Capsule-SE-AJ-MedicinalProductDefinition",
        "meta": {
          "profile": [
            "http://unicom-project.eu/fhir/StructureDefinition/PPLMedicinalProductDefinition"
          ]
        },
        "identifier": [
          {
            "system": "http://ema.europa.eu/fhir/mpId",
            "value": "SE-100000607-00047383"
          },
          {
            "system": "http://ema.europa.eu/fhir/eurdId",
            "value": "10289"
          }
        ],
        "name": [
          {
            "usage": [
              {
                "country": {
                  "coding": [
                    {
                      "system": "https://spor.ema.europa.eu/v1/lists/100000000002",
                      "display": "Sweden"
                    }
                  ]
                },
                "language": {
                  "coding": [
                    {
                      "code": "sv",
                      "system": "urn:ietf:bcp:47",
                      "display": "Swedish"
                    }
                  ]
                }
              }
            ],
            "productName": "Elvanse 50 mg Kapsel, hård"
          }
        ],
        "combinedPharmaceuticalDoseForm": {
          "coding": [
            {
              "code": "100000073375",
              "system": "https://spor.ema.europa.eu/v1/lists/200000000004",
              "display": "Capsule, hard"
            }
          ]
        },
        "domain": {
          "coding": [
            {
              "code": "100000000012",
              "system": "https://spor.ema.europa.eu/v1/lists/100000000004",
              "display": "Human use"
            }
          ]
        },
        "status": {
          "coding": [
            {
              "code": "200000005004",
              "system": "https://spor.ema.europa.eu/v1/lists/200000005003",
              "display": "Current"
            }
          ]
        },
        "indication": "Elvanse är indicerat som en del i ett omfattande behandlingsprogram anpassat för ADHD (Attention Deficit Hyperactivity Disorder, Uppmärksamhetsstörning/Hyperaktivitet)  hos barn i åldern 6 år och äldre, när svar på tidigare behandling med metylfenidat bedöms vara kliniskt otillräckligt. Behandlingen ska ske under överinseende av specialist på beteendestörningar hos barn och/eller ungdomar.  Diagnos ska ställas enligt kriterierna i DSM eller riktlinjerna i ICD och ska grundas på fullständig anamnes och utvärdering av patienten.  Diagnos kan inte ställas enbart på närvaro av ett eller flera symtom. Den specifika etiologin för detta syndrom är okänd, och det finns inget enstaka diagnostiskt test.  Adekvat diagnos kräver användning av såväl medicinska som specialiserade psykologiska, pedagogiska och sociala resurser.  Ett omfattande behandlingsprogram karaktäriseras av psykologiska, pedagogiska och sociala åtgärder såväl som farmakoterapi och har som målsättning att  stabilisera barn med ett beteendesyndrom karaktäriserat av symtom som kan inkludera kronisk anamnes av kort uppmärksamhetsperiod, distraherbarhet, emotionell labilitet,  impulsivitet, måttlig till svår hyperaktivitet, mindre uttalade neurologiska tecken och onormalt EEG. Syndromet kan förekomma både med och utan inlärningssvårigheter. Behandling med Elvanse är inte indicerat för alla barn med ADHD och beslutet att använda läkemedlet måste grundas på en mycket noggrann bedömning av  svårighetsgrad och kronicitet av barnets symtom i förhållande till barnets ålder och risk för missbruk, felanvändning eller avvikande användning. Tillgång till lämplig undervisningsform är väsentlig, och psykosocial intervention är i allmänhet nödvändigt.  Användning av Elvanse ska alltid ske på detta sätt enligt godkänd indikation.",
        "legalStatusOfSupply": {
          "coding": [
            {
              "code": "100000072085",
              "system": "https://spor.ema.europa.eu/v1/lists/100000072051",
              "display": "Medicinal product subject to special medical prescription"
            }
          ]
        },
        "classification": [
          {
            "coding": [
              {
                "code": "100000125051",
                "system": "https://spor.ema.europa.eu/v1/lists/100000093533",
                "display": "N06BA12"
              }
            ]
          }
        ]
      }
    },
    {
      "resource": {
        "resourceType": "RegulatedAuthorization",
        "id": "Elvanse-50mg-Capsule-SE-AJ-RegulatedAuthorization",
        "meta": {
          "profile": [
            "http://unicom-project.eu/fhir/StructureDefinition/PPLRegulatedAuthorization"
          ]
        },
        "type": {
          "coding": [
            {
              "system": "https://spor.ema.europa.eu/v1/lists/220000000060",
              "code": "220000000061",
              "display": "Marketing Authorisation"
            }
          ]
        },
        "identifier": [
          {
            "system": "http://ema.europa.eu/fhir/marketingAuthorizationNumber",
            "value": "47383"
          }
        ],
        "subject": [
          {
            "reference": "MedicinalProductDefinition/Elvanse-50mg-Capsule-SE-AJ-MedicinalProductDefinition"
          }
        ],
        "region": [
          {
            "coding": [
              {
                "code": "100000000535",
                "system": "https://spor.ema.europa.eu/v1/lists/100000000002",
                "display": "Sweden"
              }
            ]
          }
        ],
        "status": {
          "coding": [
            {
              "code": "100000072099",
              "system": "https://spor.ema.europa.eu/v1/lists/100000072049",
              "display": "Valid"
            }
          ]
        },
        "statusDate": "2013-07-22",
        "case": {
          "type": {
            "coding": [
              {
                "code": "dateOfFirstAuthorisation",
                "system": "https://ema.europa.eu/fhir/authorisationDateType",
                "display": "First Authorisation"
              }
            ]
          },
          "dateDateTime": "2013-07-22"
        },
        "holder": {
          "reference": "Organization/LOC-100011567"
        }
      }
    },
    {
      "resource": {
        "resourceType": "AdministrableProductDefinition",
        "id": "Elvanse-50mg-Capsule-SE-AJ-AdministrableProductDefinition01",
        "meta": {
          "profile": [
            "http://unicom-project.eu/fhir/StructureDefinition/PPLAdministrableProductDefinition"
          ]
        },
        "status": "active",
        "formOf": [
          {
            "reference": "MedicinalProductDefinition/Elvanse-50mg-Capsule-SE-AJ-MedicinalProductDefinition"
          }
        ],
        "administrableDoseForm": {
          "coding": [
            {
              "code": "100000073375",
              "system": "https://spor.ema.europa.eu/v1/lists/200000000004",
              "display": "Capsule, hard"
            }
          ]
        },
        "producedFrom": [
          {
            "reference": "ManufacturedItemDefinition/Elvanse-50mg-Capsule-SE-AJ-ManufacturedItemDefinition"
          }
        ],
        "routeOfAdministration": [
          {
            "code": {
              "coding": [
                {
                  "code": "100000073619",
                  "system": "https://spor.ema.europa.eu/v1/lists/100000073345",
                  "display": "Oral use"
                }
              ]
            }
          }
        ]
      }
    },
    {
      "resource": {
        "resourceType": "AdministrableProductDefinition",
        "id": "Elvanse-50mg-Capsule-SE-AJ-AdministrableProductDefinition02",
        "meta": {
          "profile": [
            "http://unicom-project.eu/fhir/StructureDefinition/PPLAdministrableProductDefinition"
          ]
        },
        "status": "active",
        "formOf": [
          {
            "reference": "MedicinalProductDefinition/Elvanse-50mg-Capsule-SE-AJ-MedicinalProductDefinition"
          }
        ],
        "administrableDoseForm": {
          "coding": [
            {
              "code": "100000073646",
              "system": "https://spor.ema.europa.eu/v1/lists/200000000004",
              "display": "Oral solution"
            }
          ]
        },
        "producedFrom": [
          {
            "reference": "ManufacturedItemDefinition/Elvanse-50mg-Capsule-SE-AJ-ManufacturedItemDefinition"
          }
        ],
        "routeOfAdministration": [
          {
            "code": {
              "coding": [
                {
                  "code": "100000073619",
                  "system": "https://spor.ema.europa.eu/v1/lists/100000073345",
                  "display": "Oral use"
                }
              ]
            }
          }
        ]
      }
    },
    {
      "resource": {
        "resourceType": "PackagedProductDefinition",
        "id": "Elvanse-50mg-Capsule-SE-AJ-PackagedProductDefinition",
        "meta": {
          "profile": [
            "http://unicom-project.eu/fhir/StructureDefinition/PPLPackagedProductDefinition"
          ]
        },
        "identifier": [
          {
            "system": "http://ema.europa.eu/example/pcid"
          }
        ],
        "packaging": {
          "type": {
            "coding": [
              {
                "system": "https://spor.ema.europa.eu/v1/lists/100000073346",
                "code": "100000073498",
                "display": "Box"
              }
            ]
          },
          "quantity": 1
        },
        "containedItemQuantity": [
          {
            "value": 30,
            "code": "200000002113",
            "system": "http://spor.ema.europa.eu/v1/lists/200000000014",
            "unit": "Capsule"
          }
        ],
        "packageFor": [
          {
            "reference": "MedicinalProductDefinition/Elvanse-50mg-Capsule-SE-AJ-MedicinalProductDefinition"
          }
        ],
        "description": "Burk, 30 kapslar",
        "marketingStatus": [
          {
            "country": {
              "coding": [
                {
                  "code": "100000000535",
                  "system": "https://spor.ema.europa.eu/v1/lists/100000000002",
                  "display": "Sweden"
                }
              ]
            },
            "status": {
              "coding": [
                {
                  "code": "100000072083",
                  "system": "https://spor.ema.europa.eu/v1/lists/100000072052",
                  "display": "Marketed"
                }
              ]
            }
          }
        ]
      }
    },
    {
      "resource": {
        "resourceType": "ManufacturedItemDefinition",
        "id": "Elvanse-50mg-Capsule-SE-AJ-ManufacturedItemDefinition",
        "meta": {
          "profile": [
            "http://unicom-project.eu/fhir/StructureDefinition/PPLManufacturedItemDefinition"
          ]
        },
        "status": "active",
        "manufacturedDoseForm": {
          "coding": [
            {
              "code": "100000073375",
              "system": "https://spor.ema.europa.eu/v1/lists/200000000004",
              "display": "Capsule, hard"
            }
          ]
        },
        "unitOfPresentation": {
          "coding": [
            {
              "code": "200000002113",
              "system": "https://spor.ema.europa.eu/v1/lists/200000000014",
              "display": "Capsule"
            }
          ]
        }
      }
    },
    {
      "resource": {
        "resourceType": "Ingredient",
        "id": "Elvanse-50mg-Capsule-SE-AJ-Ingredient",
        "meta": {
          "profile": [
            "http://unicom-project.eu/fhir/StructureDefinition/PPLIngredient"
          ]
        },
        "status": "active",
        "for": [
          {
            "reference": "MedicinalProductDefinition/Elvanse-50mg-Capsule-SE-AJ-MedicinalProductDefinition"
          },
          {
            "reference": "ManufacturedItemDefinition/Elvanse-50mg-Capsule-SE-AJ-ManufacturedItemDefinition"
          },
          {
            "reference": "AdministrableProductDefinition/Elvanse-50mg-Capsule-SE-AJ-AdministrableProductDefinition01"
          },
          {
            "reference": "AdministrableProductDefinition/Elvanse-50mg-Capsule-SE-AJ-AdministrableProductDefinition02"
          }
        ],
        "role": {
          "coding": [
            {
              "code": "100000072072",
              "system": "https://spor.ema.europa.eu/v1/lists/100000072050",
              "display": "Active"
            }
          ]
        },
        "substance": {
          "code": {
            "concept": {
              "coding": [
                {
                  "code": "100000124520",
                  "system": "https://spor.azure-api.net/sms/api/v2/SubstanceDefinition",
                  "display": "lisdexamfetamine dimesylate"
                }
              ]
            }
          },
          "strength": [
            {
              "presentationRatio": {
                "numerator": {
                  "value": 50,
                  "code": "100000110655",
                  "system": "https://spor.ema.europa.eu/v1/lists/100000110633",
                  "unit": "milligram(s)"
                },
                "denominator": {
                  "value": 1,
                  "code": "200000002113",
                  "system": "https://spor.ema.europa.eu/v1/lists/200000000014",
                  "unit": "Capsule"
                }
              },
              "referenceStrength": [
                {
                  "substance": {
                    "concept": {
                      "coding": [
                        {
                          "code": "100000124476",
                          "system": "https://spor.azure-api.net/sms/api/v2/SubstanceDefinition",
                          "display": "lisdexamfetamine"
                        }
                      ]
                    }
                  },
                  "strengthRatio": {
                    "numerator": {
                      "value": 28.83,
                      "code": "100000110655",
                      "system": "https://spor.ema.europa.eu/v1/lists/100000110633",
                      "unit": "milligram(s)",
                      "_comparator": {
                        "extension": [
                          {
                            "url": "http://ema.europa.eu/fhir/extension/comparator",
                            "valueCoding": {
                              "code": "100000000049",
                              "system": "https://spor.ema.europa.eu/v1/lists/100000000008",
                              "display": "equal to"
                            }
                          }
                        ]
                      }
                    },
                    "denominator": {
                      "value": 1,
                      "code": "200000002113",
                      "system": "https://spor.ema.europa.eu/v1/lists/200000000014",
                      "unit": "Capsule"
                    }
                  }
                },
                {
                  "substance": {
                    "concept": {
                      "coding": [
                        {
                          "code": "100000088421",
                          "system": "https://spor.azure-api.net/sms/api/v2/SubstanceDefinition",
                          "display": "dexamfetamine"
                        }
                      ]
                    }
                  },
                  "strengthRatio": {
                    "numerator": {
                      "value": 14.8,
                      "code": "100000110655",
                      "system": "https://spor.ema.europa.eu/v1/lists/100000110633",
                      "unit": "milligram(s)",
                      "_comparator": {
                        "extension": [
                          {
                            "url": "http://ema.europa.eu/fhir/extension/comparator",
                            "valueCoding": {
                              "code": "100000000049",
                              "system": "https://spor.ema.europa.eu/v1/lists/100000000008",
                              "display": "equal to"
                            }
                          }
                        ]
                      }
                    },
                    "denominator": {
                      "value": 1,
                      "code": "200000002113",
                      "system": "https://spor.ema.europa.eu/v1/lists/200000000014",
                      "unit": "Capsule"
                    }
                  }
                }
              ]
            }
          ]
        }
      }
    }
  ]
}
