{
  "resourceType": "Bundle",
  "id": "GOFSH-GENERATED-ID-81",
  "type": "collection",
  "entry": [
    {
      "resource": {
        "resourceType": "MedicinalProductDefinition",
        "id": "Espranor-2mg-Lyophilisate-SE-BS-MedicinalProductDefinition",
        "meta": {
          "profile": [
            "http://unicom-project.eu/fhir/StructureDefinition/PPLMedicinalProductDefinition"
          ]
        },
        "identifier": [
          {
            "system": "http://ema.europa.eu/fhir/mpId",
            "value": "SE-XXXXXXXXX-00051207"
          },
          {
            "system": "http://ema.europa.eu/fhir/eurdId",
            "value": "461"
          }
        ],
        "combinedPharmaceuticalDoseForm": {
          "coding": [
            {
              "code": "100000073682",
              "system": "https://spor.ema.europa.eu/v1/lists/200000000004",
              "display": "Oral lyophilisate"
            }
          ]
        },
        "domain": {
          "coding": [
            {
              "code": "100000000012",
              "system": "https://spor.ema.europa.eu/v1/lists/100000000004",
              "display": "Human use"
            }
          ]
        },
        "status": {
          "coding": [
            {
              "code": "200000005004",
              "system": "https://spor.ema.europa.eu/v1/lists/200000005003",
              "display": "Current"
            }
          ]
        },
        "indication": "Substitutionsbehandling för opioidberoende, inom ramen för en medicinsk, social och psykologisk behandling. Behandling med Espranor frystorkad tablett är avsedd för vuxna och ungdomar i åldern 15 år och äldre som har samtyckt till behandling av sitt beroende.",
        "legalStatusOfSupply": {
          "coding": [
            {
              "code": "100000072085",
              "system": "https://spor.ema.europa.eu/v1/lists/100000072051",
              "display": "Medicinal product subject to special medical prescription"
            }
          ]
        },
        "classification": [
          {
            "coding": [
              {
                "code": "100000097495",
                "system": "https://spor.ema.europa.eu/v1/lists/100000116677",
                "display": "N07BC01"
              }
            ]
          }
        ],
        "name": [
          {
            "productName": "Espranor 2 mg frystorkad tablett"
          }
        ]
      }
    },
    {
      "resource": {
        "resourceType": "RegulatedAuthorization",
        "id": "Espranor-2mg-Lyophilisate-SE-BS-RegulatedAuthorization",
        "meta": {
          "profile": [
            "http://unicom-project.eu/fhir/StructureDefinition/PPLRegulatedAuthorization"
          ]
        },
        "type": {
          "coding": [
            {
              "system": "https://spor.ema.europa.eu/v1/lists/220000000060",
              "code": "220000000061",
              "display": "Marketing Authorisation"
            }
          ]
        },
        "identifier": [
          {
            "system": "http://ema.europa.eu/fhir/marketingAuthorizationNumber",
            "value": "51207"
          }
        ],
        "subject": [
          {
            "reference": "MedicinalProductDefinition/Espranor-2mg-Lyophilisate-SE-BS-MedicinalProductDefinition"
          }
        ],
        "region": [
          {
            "coding": [
              {
                "code": "100000000535",
                "system": "https://spor.ema.europa.eu/v1/lists/100000000002",
                "display": "Sweden"
              }
            ]
          }
        ],
        "status": {
          "coding": [
            {
              "code": "100000072099",
              "system": "https://spor.ema.europa.eu/v1/lists/100000072049",
              "display": "Valid"
            }
          ]
        },
        "statusDate": "2015-07-16",
        "case": {
          "type": {
            "coding": [
              {
                "code": "dateOfFirstAuthorisation",
                "system": "https://ema.europa.eu/fhir/authorisationDateType",
                "display": "First Authorisation"
              }
            ]
          },
          "dateDateTime": "2015-07-16"
        },
        "holder": {
          "reference": "Organization/LOC-XXXXXXXX"
        }
      }
    },
    {
      "resource": {
        "resourceType": "AdministrableProductDefinition",
        "id": "Espranor-2mg-Lyophilisate-SE-BS-AdministrableProductDefinition",
        "meta": {
          "profile": [
            "http://unicom-project.eu/fhir/StructureDefinition/PPLAdministrableProductDefinition"
          ]
        },
        "status": "active",
        "formOf": [
          {
            "reference": "MedicinalProductDefinition/Espranor-2mg-Lyophilisate-SE-BS-MedicinalProductDefinition"
          }
        ],
        "administrableDoseForm": {
          "coding": [
            {
              "code": "100000073682",
              "system": "https://spor.ema.europa.eu/v1/lists/200000000004",
              "display": "Oral lyophilisate"
            }
          ]
        },
        "producedFrom": [
          {
            "reference": "ManufacturedItemDefinition/Espranor-2mg-Lyophilisate-SE-BS-ManufacturedItemDefinition"
          }
        ],
        "routeOfAdministration": [
          {
            "code": {
              "coding": [
                {
                  "code": "100000073619",
                  "system": "https://spor.ema.europa.eu/v1/lists/100000073345",
                  "display": "Oral use"
                }
              ]
            }
          }
        ]
      }
    },
    {
      "resource": {
        "resourceType": "PackagedProductDefinition",
        "id": "Espranor-2mg-Lyophilisate-SE-BS-PackagedProductDefinition01",
        "meta": {
          "profile": [
            "http://unicom-project.eu/fhir/StructureDefinition/PPLPackagedProductDefinition"
          ]
        },
        "identifier": [
          {
            "system": "http://ema.europa.eu/example/pcid"
          }
        ],
        "packaging": {
          "type": {
            "coding": [
              {
                "system": "https://spor.ema.europa.eu/v1/lists/100000073346",
                "code": "100000073498",
                "display": "Box"
              }
            ]
          },
          "quantity": 1
        },
        "containedItemQuantity": [
          {
            "value": 28,
            "code": "200000002152",
            "system": "http://spor.ema.europa.eu/v1/lists/200000000014",
            "unit": "Tablet"
          }
        ],
        "packageFor": [
          {
            "reference": "MedicinalProductDefinition/Espranor-2mg-Lyophilisate-SE-BS-MedicinalProductDefinition"
          }
        ],
        "description": "Blister, 28 tabletter (endos)",
        "marketingStatus": [
          {
            "country": {
              "coding": [
                {
                  "code": "100000000535",
                  "system": "https://spor.ema.europa.eu/v1/lists/100000000002",
                  "display": "Sweden"
                }
              ]
            },
            "status": {
              "coding": [
                {
                  "code": "100000072083",
                  "system": "https://spor.ema.europa.eu/v1/lists/100000072052",
                  "display": "Marketed"
                }
              ]
            }
          }
        ]
      }
    },
    {
      "resource": {
        "resourceType": "PackagedProductDefinition",
        "id": "Espranor-2mg-Lyophilisate-SE-BS-PackagedProductDefinition02",
        "meta": {
          "profile": [
            "http://unicom-project.eu/fhir/StructureDefinition/PPLPackagedProductDefinition"
          ]
        },
        "identifier": [
          {
            "system": "http://ema.europa.eu/example/pcid"
          }
        ],
        "packaging": {
          "type": {
            "coding": [
              {
                "system": "https://spor.ema.europa.eu/v1/lists/100000073346",
                "code": "100000073498",
                "display": "Box"
              }
            ]
          },
          "quantity": 1
        },
        "containedItemQuantity": [
          {
            "value": 7,
            "code": "200000002152",
            "system": "http://spor.ema.europa.eu/v1/lists/200000000014",
            "unit": "Tablet"
          }
        ],
        "packageFor": [
          {
            "reference": "MedicinalProductDefinition/Espranor-2mg-Lyophilisate-SE-BS-MedicinalProductDefinition"
          }
        ],
        "description": "Blister, 7 tabletter (endos)",
        "marketingStatus": [
          {
            "country": {
              "coding": [
                {
                  "code": "100000000535",
                  "system": "https://spor.ema.europa.eu/v1/lists/100000000002",
                  "display": "Sweden"
                }
              ]
            },
            "status": {
              "coding": [
                {
                  "code": "100000072083",
                  "system": "https://spor.ema.europa.eu/v1/lists/100000072052",
                  "display": "Marketed"
                }
              ]
            }
          }
        ]
      }
    },
    {
      "resource": {
        "resourceType": "ManufacturedItemDefinition",
        "id": "Espranor-2mg-Lyophilisate-SE-BS-ManufacturedItemDefinition",
        "meta": {
          "profile": [
            "http://unicom-project.eu/fhir/StructureDefinition/PPLManufacturedItemDefinition"
          ]
        },
        "status": "active",
        "manufacturedDoseForm": {
          "coding": [
            {
              "code": "100000073682",
              "system": "https://spor.ema.europa.eu/v1/lists/200000000004",
              "display": "Oral lyophilisate"
            }
          ]
        },
        "unitOfPresentation": {
          "coding": [
            {
              "code": "200000002152",
              "system": "https://spor.ema.europa.eu/v1/lists/200000000014",
              "display": "Tablet"
            }
          ]
        }
      }
    },
    {
      "resource": {
        "resourceType": "Ingredient",
        "id": "Espranor-2mg-Lyophilisate-SE-BS-Ingredient",
        "meta": {
          "profile": [
            "http://unicom-project.eu/fhir/StructureDefinition/PPLIngredient"
          ]
        },
        "status": "active",
        "for": [
          {
            "reference": "MedicinalProductDefinition/Espranor-2mg-Lyophilisate-SE-BS-MedicinalProductDefinition"
          },
          {
            "reference": "ManufacturedItemDefinition/Espranor-2mg-Lyophilisate-SE-BS-ManufacturedItemDefinition"
          },
          {
            "reference": "AdministrableProductDefinition/Espranor-2mg-Lyophilisate-SE-BS-AdministrableProductDefinition"
          }
        ],
        "role": {
          "coding": [
            {
              "code": "100000072072",
              "system": "https://spor.ema.europa.eu/v1/lists/100000072050",
              "display": "Active"
            }
          ]
        },
        "substance": {
          "code": {
            "concept": {
              "coding": [
                {
                  "code": "100000092032",
                  "system": "https://spor.azure-api.net/sms/api/v2/SubstanceDefinition",
                  "display": "Buprenorphine hydrochloride"
                }
              ]
            }
          },
          "strength": [
            {
              "presentationRatio": {
                "numerator": {
                  "value": 2.156,
                  "code": "100000110655",
                  "system": "http://spor.ema.europa.eu/v1/lists/100000110633",
                  "unit": "milligram(s)"
                },
                "denominator": {
                  "value": 1,
                  "code": "200000002152",
                  "system": "http://spor.ema.europa.eu/v1/lists/100000110633",
                  "unit": "tablet"
                }
              },
              "referenceStrength": [
                {
                  "substance": {
                    "concept": {
                      "coding": [
                        {
                          "code": "100000085263",
                          "system": "https://spor.azure-api.net/sms/api/v2/SubstanceDefinition",
                          "display": "Buprenorphine"
                        }
                      ]
                    }
                  },
                  "strengthRatio": {
                    "numerator": {
                      "value": 2,
                      "code": "100000110655",
                      "system": "http://spor.ema.europa.eu/v1/lists/100000110633",
                      "unit": "milligram(s)"
                    },
                    "denominator": {
                      "value": 1,
                      "code": "200000002152",
                      "system": "http://spor.ema.europa.eu/v1/lists/100000110633",
                      "unit": "tablet"
                    }
                  }
                }
              ]
            }
          ]
        }
      }
    }
  ]
}
